ExperimentName	Subject	Session	Clock.Information	DataFile.Basename	Display.RefreshRate	ExperimentVersion	Group	Menu1.ACC	Menu1.CRESP	Menu1.DurationError	Menu1.OnsetDelay	Menu1.OnsetTime	Menu1.OnsetToOnsetTime	Menu1.RESP	Menu1.RT	Menu1.RTTime	RandomSeed	RuntimeVersion	RuntimeVersionExpected	SessionDate	SessionStartDateTimeUtc	SessionTime	StudioVersion	Block	Antag	Green[Block]	IntensityRatingTraining[Block]	Procedure[Block]	Question[Block]	Running[Block]	ScaleTraining	ScaleTraining.Cycle	ScaleTraining.Sample	Test1	Test1.Cycle	Test1.Sample	Test2	Test2.Cycle	Test2.Sample	TestMode	Train1	Train1.Cycle	Train1.Sample	Train2	Train2.Cycle	Train2.Sample	Trial	CorrectAnswer[Trial]	Descriptor	Green[Trial]	IntensityRatingTraining[Trial]	LeftType	OdorLeft	OdorRight	OdorType	Procedure[Trial]	Question[Trial]	QuizList	QuizList.Cycle	QuizList.Sample	QuizList2	QuizList2.Cycle	QuizList2.Sample	QuizPage.ACC	QuizPage.CRESP	QuizPage.DurationError	QuizPage.OnsetDelay	QuizPage.OnsetTime	QuizPage.OnsetToOnsetTime	QuizPage.RESP	QuizPage.RT	QuizPage.RTTime	RightType	Running[Trial]	TrainList	TrainList.Cycle	TrainList.Sample	TrainList2	TrainList2.Cycle	TrainList2.Sample	TrialList	TrialList.Cycle	TrialList.Sample	TrialList2	TrialList2.Cycle	TrialList2.Sample	SubTrial	Band	CorrectAnswer[SubTrial]	Experiment	Experiment.Cycle	Experiment.Sample	Gender	Green[SubTrial]	IntensityRatingAntag	IntensityRatingFishy	MorF.ACC	MorF.CRESP	MorF.DurationError	MorF.OnsetDelay	MorF.OnsetTime	MorF.OnsetToOnsetTime	MorF.RESP	MorF.RT	MorF.RTTime	OdorAndConcentration	Prepare	Prepare.Cycle	Prepare.Sample	Procedure[SubTrial]	Question[SubTrial]	Running[SubTrial]	SongName	SongTitle	SoundList	SoundList.Cycle	SoundList.Sample	SoundList2	SoundList2.Cycle	SoundList2.Sample	TrialNo
TMA Blocker Split Nostril Olfactometer_Pilot 2	30	1	<?xml version="1.0"?>\n<Clock xmlns:dt="urn:schemas-microsoft-com:datatypes"><Description dt:dt="string">E-Prime Primary Realtime Clock</Description><StartTime><Timestamp dt:dt="int">0</Timestamp><DateUtc dt:dt="string">2016-07-11T17:56:03Z</DateUtc></StartTime><FrequencyChanges><FrequencyChange><Frequency dt:dt="r8">2793160000</Frequency><Timestamp dt:dt="r8">3.39725759861729E+15</Timestamp><Current dt:dt="r8">0</Current><DateUtc dt:dt="string">2016-07-11T17:56:03Z</DateUtc></FrequencyChange></FrequencyChanges></Clock>\n	TMA Blocker Split Nostril Olfactometer_Pilot 2-30-1	74.912	1.0.0.1449	1	0		-999999	9	3803793	0	q	30797	3834590	-1190413399	2.0.10.242	2.0.10.242	07-11-2016	7/11/2016 5:56:03 PM	13:56:03	2.0.10.147	1	NULL		575	ScaleTrainingProc	The loudness of a whisper	ScaleTraining	8	2	1	NULL	NULL	NULL	NULL	NULL	NULL	NULL	NULL	NULL	NULL	NULL	NULL	NULL	NULL	NULL	NULL	NULL	NULL	NULL	NULL	NULL	NULL	NULL	NULL	NULL	NULL	NULL	NULL	NULL	NULL	NULL	NULL	NULL	NULL	NULL	NULL	NULL	NULL	NULL	NULL	NULL	NULL	NULL	NULL	NULL	NULL	NULL	NULL	NULL	NULL	NULL	NULL	NULL	NULL	NULL	NULL	NULL	NULL	NULL	NULL	NULL	NULL	NULL	NULL	NULL	NULL	NULL	NULL	NULL	NULL	NULL	NULL	NULL	NULL	NULL	NULL	NULL	NULL	NULL	NULL	NULL	NULL	NULL	NULL	NULL	NULL	NULL	NULL
TMA Blocker Split Nostril Olfactometer_Pilot 2	30	1	<?xml version="1.0"?>\n<Clock xmlns:dt="urn:schemas-microsoft-com:datatypes"><Description dt:dt="string">E-Prime Primary Realtime Clock</Description><StartTime><Timestamp dt:dt="int">0</Timestamp><DateUtc dt:dt="string">2016-07-11T17:56:03Z</DateUtc></StartTime><FrequencyChanges><FrequencyChange><Frequency dt:dt="r8">2793160000</Frequency><Timestamp dt:dt="r8">3.39725759861729E+15</Timestamp><Current dt:dt="r8">0</Current><DateUtc dt:dt="string">2016-07-11T17:56:03Z</DateUtc></FrequencyChange></FrequencyChanges></Clock>\n	TMA Blocker Split Nostril Olfactometer_Pilot 2-30-1	74.912	1.0.0.1449	1	0		-999999	9	3803793	0	q	30797	3834590	-1190413399	2.0.10.242	2.0.10.242	07-11-2016	7/11/2016 5:56:03 PM	13:56:03	2.0.10.147	2	NULL		81	ScaleTrainingProc	The strongest odor you have ever smelled	ScaleTraining	14	2	2	NULL	NULL	NULL	NULL	NULL	NULL	NULL	NULL	NULL	NULL	NULL	NULL	NULL	NULL	NULL	NULL	NULL	NULL	NULL	NULL	NULL	NULL	NULL	NULL	NULL	NULL	NULL	NULL	NULL	NULL	NULL	NULL	NULL	NULL	NULL	NULL	NULL	NULL	NULL	NULL	NULL	NULL	NULL	NULL	NULL	NULL	NULL	NULL	NULL	NULL	NULL	NULL	NULL	NULL	NULL	NULL	NULL	NULL	NULL	NULL	NULL	NULL	NULL	NULL	NULL	NULL	NULL	NULL	NULL	NULL	NULL	NULL	NULL	NULL	NULL	NULL	NULL	NULL	NULL	NULL	NULL	NULL	NULL	NULL	NULL	NULL	NULL	NULL
TMA Blocker Split Nostril Olfactometer_Pilot 2	30	1	<?xml version="1.0"?>\n<Clock xmlns:dt="urn:schemas-microsoft-com:datatypes"><Description dt:dt="string">E-Prime Primary Realtime Clock</Description><StartTime><Timestamp dt:dt="int">0</Timestamp><DateUtc dt:dt="string">2016-07-11T17:56:03Z</DateUtc></StartTime><FrequencyChanges><FrequencyChange><Frequency dt:dt="r8">2793160000</Frequency><Timestamp dt:dt="r8">3.39725759861729E+15</Timestamp><Current dt:dt="r8">0</Current><DateUtc dt:dt="string">2016-07-11T17:56:03Z</DateUtc></FrequencyChange></FrequencyChanges></Clock>\n	TMA Blocker Split Nostril Olfactometer_Pilot 2-30-1	74.912	1.0.0.1449	1	0		-999999	9	3803793	0	q	30797	3834590	-1190413399	2.0.10.242	2.0.10.242	07-11-2016	7/11/2016 5:56:03 PM	13:56:03	2.0.10.147	3	NULL		405	ScaleTrainingProc	The strength of the odor (intensity) of a rose	ScaleTraining	13	2	3	NULL	NULL	NULL	NULL	NULL	NULL	NULL	NULL	NULL	NULL	NULL	NULL	NULL	NULL	NULL	NULL	NULL	NULL	NULL	NULL	NULL	NULL	NULL	NULL	NULL	NULL	NULL	NULL	NULL	NULL	NULL	NULL	NULL	NULL	NULL	NULL	NULL	NULL	NULL	NULL	NULL	NULL	NULL	NULL	NULL	NULL	NULL	NULL	NULL	NULL	NULL	NULL	NULL	NULL	NULL	NULL	NULL	NULL	NULL	NULL	NULL	NULL	NULL	NULL	NULL	NULL	NULL	NULL	NULL	NULL	NULL	NULL	NULL	NULL	NULL	NULL	NULL	NULL	NULL	NULL	NULL	NULL	NULL	NULL	NULL	NULL	NULL	NULL
TMA Blocker Split Nostril Olfactometer_Pilot 2	30	1	<?xml version="1.0"?>\n<Clock xmlns:dt="urn:schemas-microsoft-com:datatypes"><Description dt:dt="string">E-Prime Primary Realtime Clock</Description><StartTime><Timestamp dt:dt="int">0</Timestamp><DateUtc dt:dt="string">2016-07-11T17:56:03Z</DateUtc></StartTime><FrequencyChanges><FrequencyChange><Frequency dt:dt="r8">2793160000</Frequency><Timestamp dt:dt="r8">3.39725759861729E+15</Timestamp><Current dt:dt="r8">0</Current><DateUtc dt:dt="string">2016-07-11T17:56:03Z</DateUtc></FrequencyChange></FrequencyChanges></Clock>\n	TMA Blocker Split Nostril Olfactometer_Pilot 2-30-1	74.912	1.0.0.1449	1	0		-999999	9	3803793	0	q	30797	3834590	-1190413399	2.0.10.242	2.0.10.242	07-11-2016	7/11/2016 5:56:03 PM	13:56:03	2.0.10.147	4	NULL		321	scaleTrainingProc	The sourness of a lemon	ScaleTraining	15	2	4	NULL	NULL	NULL	NULL	NULL	NULL	NULL	NULL	NULL	NULL	NULL	NULL	NULL	NULL	NULL	NULL	NULL	NULL	NULL	NULL	NULL	NULL	NULL	NULL	NULL	NULL	NULL	NULL	NULL	NULL	NULL	NULL	NULL	NULL	NULL	NULL	NULL	NULL	NULL	NULL	NULL	NULL	NULL	NULL	NULL	NULL	NULL	NULL	NULL	NULL	NULL	NULL	NULL	NULL	NULL	NULL	NULL	NULL	NULL	NULL	NULL	NULL	NULL	NULL	NULL	NULL	NULL	NULL	NULL	NULL	NULL	NULL	NULL	NULL	NULL	NULL	NULL	NULL	NULL	NULL	NULL	NULL	NULL	NULL	NULL	NULL	NULL	NULL
TMA Blocker Split Nostril Olfactometer_Pilot 2	30	1	<?xml version="1.0"?>\n<Clock xmlns:dt="urn:schemas-microsoft-com:datatypes"><Description dt:dt="string">E-Prime Primary Realtime Clock</Description><StartTime><Timestamp dt:dt="int">0</Timestamp><DateUtc dt:dt="string">2016-07-11T17:56:03Z</DateUtc></StartTime><FrequencyChanges><FrequencyChange><Frequency dt:dt="r8">2793160000</Frequency><Timestamp dt:dt="r8">3.39725759861729E+15</Timestamp><Current dt:dt="r8">0</Current><DateUtc dt:dt="string">2016-07-11T17:56:03Z</DateUtc></FrequencyChange></FrequencyChanges></Clock>\n	TMA Blocker Split Nostril Olfactometer_Pilot 2-30-1	74.912	1.0.0.1449	1	0		-999999	9	3803793	0	q	30797	3834590	-1190413399	2.0.10.242	2.0.10.242	07-11-2016	7/11/2016 5:56:03 PM	13:56:03	2.0.10.147	5	NULL		80	ScaleTrainingProc	The loudest sound you have ever heard	ScaleTraining	2	2	5	NULL	NULL	NULL	NULL	NULL	NULL	NULL	NULL	NULL	NULL	NULL	NULL	NULL	NULL	NULL	NULL	NULL	NULL	NULL	NULL	NULL	NULL	NULL	NULL	NULL	NULL	NULL	NULL	NULL	NULL	NULL	NULL	NULL	NULL	NULL	NULL	NULL	NULL	NULL	NULL	NULL	NULL	NULL	NULL	NULL	NULL	NULL	NULL	NULL	NULL	NULL	NULL	NULL	NULL	NULL	NULL	NULL	NULL	NULL	NULL	NULL	NULL	NULL	NULL	NULL	NULL	NULL	NULL	NULL	NULL	NULL	NULL	NULL	NULL	NULL	NULL	NULL	NULL	NULL	NULL	NULL	NULL	NULL	NULL	NULL	NULL	NULL	NULL
TMA Blocker Split Nostril Olfactometer_Pilot 2	30	1	<?xml version="1.0"?>\n<Clock xmlns:dt="urn:schemas-microsoft-com:datatypes"><Description dt:dt="string">E-Prime Primary Realtime Clock</Description><StartTime><Timestamp dt:dt="int">0</Timestamp><DateUtc dt:dt="string">2016-07-11T17:56:03Z</DateUtc></StartTime><FrequencyChanges><FrequencyChange><Frequency dt:dt="r8">2793160000</Frequency><Timestamp dt:dt="r8">3.39725759861729E+15</Timestamp><Current dt:dt="r8">0</Current><DateUtc dt:dt="string">2016-07-11T17:56:03Z</DateUtc></FrequencyChange></FrequencyChanges></Clock>\n	TMA Blocker Split Nostril Olfactometer_Pilot 2-30-1	74.912	1.0.0.1449	1	0		-999999	9	3803793	0	q	30797	3834590	-1190413399	2.0.10.242	2.0.10.242	07-11-2016	7/11/2016 5:56:03 PM	13:56:03	2.0.10.147	6	NULL		93	ScaleTrainingProc	The heat from dipping your hand in scalding hot water	ScaleTraining	3	2	6	NULL	NULL	NULL	NULL	NULL	NULL	NULL	NULL	NULL	NULL	NULL	NULL	NULL	NULL	NULL	NULL	NULL	NULL	NULL	NULL	NULL	NULL	NULL	NULL	NULL	NULL	NULL	NULL	NULL	NULL	NULL	NULL	NULL	NULL	NULL	NULL	NULL	NULL	NULL	NULL	NULL	NULL	NULL	NULL	NULL	NULL	NULL	NULL	NULL	NULL	NULL	NULL	NULL	NULL	NULL	NULL	NULL	NULL	NULL	NULL	NULL	NULL	NULL	NULL	NULL	NULL	NULL	NULL	NULL	NULL	NULL	NULL	NULL	NULL	NULL	NULL	NULL	NULL	NULL	NULL	NULL	NULL	NULL	NULL	NULL	NULL	NULL	NULL
TMA Blocker Split Nostril Olfactometer_Pilot 2	30	1	<?xml version="1.0"?>\n<Clock xmlns:dt="urn:schemas-microsoft-com:datatypes"><Description dt:dt="string">E-Prime Primary Realtime Clock</Description><StartTime><Timestamp dt:dt="int">0</Timestamp><DateUtc dt:dt="string">2016-07-11T17:56:03Z</DateUtc></StartTime><FrequencyChanges><FrequencyChange><Frequency dt:dt="r8">2793160000</Frequency><Timestamp dt:dt="r8">3.39725759861729E+15</Timestamp><Current dt:dt="r8">0</Current><DateUtc dt:dt="string">2016-07-11T17:56:03Z</DateUtc></FrequencyChange></FrequencyChanges></Clock>\n	TMA Blocker Split Nostril Olfactometer_Pilot 2-30-1	74.912	1.0.0.1449	1	0		-999999	9	3803793	0	q	30797	3834590	-1190413399	2.0.10.242	2.0.10.242	07-11-2016	7/11/2016 5:56:03 PM	13:56:03	2.0.10.147	7	NULL		497	ScaleTrainingProc	The loudness of a conversation	ScaleTraining	7	2	7	NULL	NULL	NULL	NULL	NULL	NULL	NULL	NULL	NULL	NULL	NULL	NULL	NULL	NULL	NULL	NULL	NULL	NULL	NULL	NULL	NULL	NULL	NULL	NULL	NULL	NULL	NULL	NULL	NULL	NULL	NULL	NULL	NULL	NULL	NULL	NULL	NULL	NULL	NULL	NULL	NULL	NULL	NULL	NULL	NULL	NULL	NULL	NULL	NULL	NULL	NULL	NULL	NULL	NULL	NULL	NULL	NULL	NULL	NULL	NULL	NULL	NULL	NULL	NULL	NULL	NULL	NULL	NULL	NULL	NULL	NULL	NULL	NULL	NULL	NULL	NULL	NULL	NULL	NULL	NULL	NULL	NULL	NULL	NULL	NULL	NULL	NULL	NULL
TMA Blocker Split Nostril Olfactometer_Pilot 2	30	1	<?xml version="1.0"?>\n<Clock xmlns:dt="urn:schemas-microsoft-com:datatypes"><Description dt:dt="string">E-Prime Primary Realtime Clock</Description><StartTime><Timestamp dt:dt="int">0</Timestamp><DateUtc dt:dt="string">2016-07-11T17:56:03Z</DateUtc></StartTime><FrequencyChanges><FrequencyChange><Frequency dt:dt="r8">2793160000</Frequency><Timestamp dt:dt="r8">3.39725759861729E+15</Timestamp><Current dt:dt="r8">0</Current><DateUtc dt:dt="string">2016-07-11T17:56:03Z</DateUtc></FrequencyChange></FrequencyChanges></Clock>\n	TMA Blocker Split Nostril Olfactometer_Pilot 2-30-1	74.912	1.0.0.1449	1	0		-999999	9	3803793	0	q	30797	3834590	-1190413399	2.0.10.242	2.0.10.242	07-11-2016	7/11/2016 5:56:03 PM	13:56:03	2.0.10.147	8	NULL		94	ScaleTrainingProc	The brightest light you have ever seen	ScaleTraining	1	2	8	NULL	NULL	NULL	NULL	NULL	NULL	NULL	NULL	NULL	NULL	NULL	NULL	NULL	NULL	NULL	NULL	NULL	NULL	NULL	NULL	NULL	NULL	NULL	NULL	NULL	NULL	NULL	NULL	NULL	NULL	NULL	NULL	NULL	NULL	NULL	NULL	NULL	NULL	NULL	NULL	NULL	NULL	NULL	NULL	NULL	NULL	NULL	NULL	NULL	NULL	NULL	NULL	NULL	NULL	NULL	NULL	NULL	NULL	NULL	NULL	NULL	NULL	NULL	NULL	NULL	NULL	NULL	NULL	NULL	NULL	NULL	NULL	NULL	NULL	NULL	NULL	NULL	NULL	NULL	NULL	NULL	NULL	NULL	NULL	NULL	NULL	NULL	NULL
TMA Blocker Split Nostril Olfactometer_Pilot 2	30	1	<?xml version="1.0"?>\n<Clock xmlns:dt="urn:schemas-microsoft-com:datatypes"><Description dt:dt="string">E-Prime Primary Realtime Clock</Description><StartTime><Timestamp dt:dt="int">0</Timestamp><DateUtc dt:dt="string">2016-07-11T17:56:03Z</DateUtc></StartTime><FrequencyChanges><FrequencyChange><Frequency dt:dt="r8">2793160000</Frequency><Timestamp dt:dt="r8">3.39725759861729E+15</Timestamp><Current dt:dt="r8">0</Current><DateUtc dt:dt="string">2016-07-11T17:56:03Z</DateUtc></FrequencyChange></FrequencyChanges></Clock>\n	TMA Blocker Split Nostril Olfactometer_Pilot 2-30-1	74.912	1.0.0.1449	1	0		-999999	9	3803793	0	q	30797	3834590	-1190413399	2.0.10.242	2.0.10.242	07-11-2016	7/11/2016 5:56:03 PM	13:56:03	2.0.10.147	9	NULL		500	ScaleTrainingProc	The strength of a firm handshake	ScaleTraining	6	2	9	NULL	NULL	NULL	NULL	NULL	NULL	NULL	NULL	NULL	NULL	NULL	NULL	NULL	NULL	NULL	NULL	NULL	NULL	NULL	NULL	NULL	NULL	NULL	NULL	NULL	NULL	NULL	NULL	NULL	NULL	NULL	NULL	NULL	NULL	NULL	NULL	NULL	NULL	NULL	NULL	NULL	NULL	NULL	NULL	NULL	NULL	NULL	NULL	NULL	NULL	NULL	NULL	NULL	NULL	NULL	NULL	NULL	NULL	NULL	NULL	NULL	NULL	NULL	NULL	NULL	NULL	NULL	NULL	NULL	NULL	NULL	NULL	NULL	NULL	NULL	NULL	NULL	NULL	NULL	NULL	NULL	NULL	NULL	NULL	NULL	NULL	NULL	NULL
TMA Blocker Split Nostril Olfactometer_Pilot 2	30	1	<?xml version="1.0"?>\n<Clock xmlns:dt="urn:schemas-microsoft-com:datatypes"><Description dt:dt="string">E-Prime Primary Realtime Clock</Description><StartTime><Timestamp dt:dt="int">0</Timestamp><DateUtc dt:dt="string">2016-07-11T17:56:03Z</DateUtc></StartTime><FrequencyChanges><FrequencyChange><Frequency dt:dt="r8">2793160000</Frequency><Timestamp dt:dt="r8">3.39725759861729E+15</Timestamp><Current dt:dt="r8">0</Current><DateUtc dt:dt="string">2016-07-11T17:56:03Z</DateUtc></FrequencyChange></FrequencyChanges></Clock>\n	TMA Blocker Split Nostril Olfactometer_Pilot 2-30-1	74.912	1.0.0.1449	1	0		-999999	9	3803793	0	q	30797	3834590	-1190413399	2.0.10.242	2.0.10.242	07-11-2016	7/11/2016 5:56:03 PM	13:56:03	2.0.10.147	10	NULL		495	ScaleTrainingProc	The coolness from a peppermint candy	ScaleTraining	9	2	10	NULL	NULL	NULL	NULL	NULL	NULL	NULL	NULL	NULL	NULL	NULL	NULL	NULL	NULL	NULL	NULL	NULL	NULL	NULL	NULL	NULL	NULL	NULL	NULL	NULL	NULL	NULL	NULL	NULL	NULL	NULL	NULL	NULL	NULL	NULL	NULL	NULL	NULL	NULL	NULL	NULL	NULL	NULL	NULL	NULL	NULL	NULL	NULL	NULL	NULL	NULL	NULL	NULL	NULL	NULL	NULL	NULL	NULL	NULL	NULL	NULL	NULL	NULL	NULL	NULL	NULL	NULL	NULL	NULL	NULL	NULL	NULL	NULL	NULL	NULL	NULL	NULL	NULL	NULL	NULL	NULL	NULL	NULL	NULL	NULL	NULL	NULL	NULL
TMA Blocker Split Nostril Olfactometer_Pilot 2	30	1	<?xml version="1.0"?>\n<Clock xmlns:dt="urn:schemas-microsoft-com:datatypes"><Description dt:dt="string">E-Prime Primary Realtime Clock</Description><StartTime><Timestamp dt:dt="int">0</Timestamp><DateUtc dt:dt="string">2016-07-11T17:56:03Z</DateUtc></StartTime><FrequencyChanges><FrequencyChange><Frequency dt:dt="r8">2793160000</Frequency><Timestamp dt:dt="r8">3.39725759861729E+15</Timestamp><Current dt:dt="r8">0</Current><DateUtc dt:dt="string">2016-07-11T17:56:03Z</DateUtc></FrequencyChange></FrequencyChanges></Clock>\n	TMA Blocker Split Nostril Olfactometer_Pilot 2-30-1	74.912	1.0.0.1449	1	0		-999999	9	3803793	0	q	30797	3834590	-1190413399	2.0.10.242	2.0.10.242	07-11-2016	7/11/2016 5:56:03 PM	13:56:03	2.0.10.147	11	NULL		437	ScaleTrainingProc	The pain from biting your tongue	ScaleTraining	4	2	11	NULL	NULL	NULL	NULL	NULL	NULL	NULL	NULL	NULL	NULL	NULL	NULL	NULL	NULL	NULL	NULL	NULL	NULL	NULL	NULL	NULL	NULL	NULL	NULL	NULL	NULL	NULL	NULL	NULL	NULL	NULL	NULL	NULL	NULL	NULL	NULL	NULL	NULL	NULL	NULL	NULL	NULL	NULL	NULL	NULL	NULL	NULL	NULL	NULL	NULL	NULL	NULL	NULL	NULL	NULL	NULL	NULL	NULL	NULL	NULL	NULL	NULL	NULL	NULL	NULL	NULL	NULL	NULL	NULL	NULL	NULL	NULL	NULL	NULL	NULL	NULL	NULL	NULL	NULL	NULL	NULL	NULL	NULL	NULL	NULL	NULL	NULL	NULL
TMA Blocker Split Nostril Olfactometer_Pilot 2	30	1	<?xml version="1.0"?>\n<Clock xmlns:dt="urn:schemas-microsoft-com:datatypes"><Description dt:dt="string">E-Prime Primary Realtime Clock</Description><StartTime><Timestamp dt:dt="int">0</Timestamp><DateUtc dt:dt="string">2016-07-11T17:56:03Z</DateUtc></StartTime><FrequencyChanges><FrequencyChange><Frequency dt:dt="r8">2793160000</Frequency><Timestamp dt:dt="r8">3.39725759861729E+15</Timestamp><Current dt:dt="r8">0</Current><DateUtc dt:dt="string">2016-07-11T17:56:03Z</DateUtc></FrequencyChange></FrequencyChanges></Clock>\n	TMA Blocker Split Nostril Olfactometer_Pilot 2-30-1	74.912	1.0.0.1449	1	0		-999999	9	3803793	0	q	30797	3834590	-1190413399	2.0.10.242	2.0.10.242	07-11-2016	7/11/2016 5:56:03 PM	13:56:03	2.0.10.147	12	NULL		327	ScaleTrainingProc	The sweetness of cotton candy	ScaleTraining	12	2	12	NULL	NULL	NULL	NULL	NULL	NULL	NULL	NULL	NULL	NULL	NULL	NULL	NULL	NULL	NULL	NULL	NULL	NULL	NULL	NULL	NULL	NULL	NULL	NULL	NULL	NULL	NULL	NULL	NULL	NULL	NULL	NULL	NULL	NULL	NULL	NULL	NULL	NULL	NULL	NULL	NULL	NULL	NULL	NULL	NULL	NULL	NULL	NULL	NULL	NULL	NULL	NULL	NULL	NULL	NULL	NULL	NULL	NULL	NULL	NULL	NULL	NULL	NULL	NULL	NULL	NULL	NULL	NULL	NULL	NULL	NULL	NULL	NULL	NULL	NULL	NULL	NULL	NULL	NULL	NULL	NULL	NULL	NULL	NULL	NULL	NULL	NULL	NULL
TMA Blocker Split Nostril Olfactometer_Pilot 2	30	1	<?xml version="1.0"?>\n<Clock xmlns:dt="urn:schemas-microsoft-com:datatypes"><Description dt:dt="string">E-Prime Primary Realtime Clock</Description><StartTime><Timestamp dt:dt="int">0</Timestamp><DateUtc dt:dt="string">2016-07-11T17:56:03Z</DateUtc></StartTime><FrequencyChanges><FrequencyChange><Frequency dt:dt="r8">2793160000</Frequency><Timestamp dt:dt="r8">3.39725759861729E+15</Timestamp><Current dt:dt="r8">0</Current><DateUtc dt:dt="string">2016-07-11T17:56:03Z</DateUtc></FrequencyChange></FrequencyChanges></Clock>\n	TMA Blocker Split Nostril Olfactometer_Pilot 2-30-1	74.912	1.0.0.1449	1	0		-999999	9	3803793	0	q	30797	3834590	-1190413399	2.0.10.242	2.0.10.242	07-11-2016	7/11/2016 5:56:03 PM	13:56:03	2.0.10.147	13	NULL		498	ScaleTrainingProc	The brigtness of a well-lit room	ScaleTraining	5	2	13	NULL	NULL	NULL	NULL	NULL	NULL	NULL	NULL	NULL	NULL	NULL	NULL	NULL	NULL	NULL	NULL	NULL	NULL	NULL	NULL	NULL	NULL	NULL	NULL	NULL	NULL	NULL	NULL	NULL	NULL	NULL	NULL	NULL	NULL	NULL	NULL	NULL	NULL	NULL	NULL	NULL	NULL	NULL	NULL	NULL	NULL	NULL	NULL	NULL	NULL	NULL	NULL	NULL	NULL	NULL	NULL	NULL	NULL	NULL	NULL	NULL	NULL	NULL	NULL	NULL	NULL	NULL	NULL	NULL	NULL	NULL	NULL	NULL	NULL	NULL	NULL	NULL	NULL	NULL	NULL	NULL	NULL	NULL	NULL	NULL	NULL	NULL	NULL
TMA Blocker Split Nostril Olfactometer_Pilot 2	30	1	<?xml version="1.0"?>\n<Clock xmlns:dt="urn:schemas-microsoft-com:datatypes"><Description dt:dt="string">E-Prime Primary Realtime Clock</Description><StartTime><Timestamp dt:dt="int">0</Timestamp><DateUtc dt:dt="string">2016-07-11T17:56:03Z</DateUtc></StartTime><FrequencyChanges><FrequencyChange><Frequency dt:dt="r8">2793160000</Frequency><Timestamp dt:dt="r8">3.39725759861729E+15</Timestamp><Current dt:dt="r8">0</Current><DateUtc dt:dt="string">2016-07-11T17:56:03Z</DateUtc></FrequencyChange></FrequencyChanges></Clock>\n	TMA Blocker Split Nostril Olfactometer_Pilot 2-30-1	74.912	1.0.0.1449	1	0		-999999	9	3803793	0	q	30797	3834590	-1190413399	2.0.10.242	2.0.10.242	07-11-2016	7/11/2016 5:56:03 PM	13:56:03	2.0.10.147	14	NULL		548	ScaleTrainingProc	The brightness of a dimly-lit room	ScaleTraining	11	2	14	NULL	NULL	NULL	NULL	NULL	NULL	NULL	NULL	NULL	NULL	NULL	NULL	NULL	NULL	NULL	NULL	NULL	NULL	NULL	NULL	NULL	NULL	NULL	NULL	NULL	NULL	NULL	NULL	NULL	NULL	NULL	NULL	NULL	NULL	NULL	NULL	NULL	NULL	NULL	NULL	NULL	NULL	NULL	NULL	NULL	NULL	NULL	NULL	NULL	NULL	NULL	NULL	NULL	NULL	NULL	NULL	NULL	NULL	NULL	NULL	NULL	NULL	NULL	NULL	NULL	NULL	NULL	NULL	NULL	NULL	NULL	NULL	NULL	NULL	NULL	NULL	NULL	NULL	NULL	NULL	NULL	NULL	NULL	NULL	NULL	NULL	NULL	NULL
TMA Blocker Split Nostril Olfactometer_Pilot 2	30	1	<?xml version="1.0"?>\n<Clock xmlns:dt="urn:schemas-microsoft-com:datatypes"><Description dt:dt="string">E-Prime Primary Realtime Clock</Description><StartTime><Timestamp dt:dt="int">0</Timestamp><DateUtc dt:dt="string">2016-07-11T17:56:03Z</DateUtc></StartTime><FrequencyChanges><FrequencyChange><Frequency dt:dt="r8">2793160000</Frequency><Timestamp dt:dt="r8">3.39725759861729E+15</Timestamp><Current dt:dt="r8">0</Current><DateUtc dt:dt="string">2016-07-11T17:56:03Z</DateUtc></FrequencyChange></FrequencyChanges></Clock>\n	TMA Blocker Split Nostril Olfactometer_Pilot 2-30-1	74.912	1.0.0.1449	1	0		-999999	9	3803793	0	q	30797	3834590	-1190413399	2.0.10.242	2.0.10.242	07-11-2016	7/11/2016 5:56:03 PM	13:56:03	2.0.10.147	15	NULL		451	ScaleTrainingProc	The warmth of a summer breeze on your face	ScaleTraining	10	2	15	NULL	NULL	NULL	NULL	NULL	NULL	NULL	NULL	NULL	NULL	NULL	NULL	NULL	NULL	NULL	NULL	NULL	NULL	NULL	NULL	NULL	NULL	NULL	NULL	NULL	NULL	NULL	NULL	NULL	NULL	NULL	NULL	NULL	NULL	NULL	NULL	NULL	NULL	NULL	NULL	NULL	NULL	NULL	NULL	NULL	NULL	NULL	NULL	NULL	NULL	NULL	NULL	NULL	NULL	NULL	NULL	NULL	NULL	NULL	NULL	NULL	NULL	NULL	NULL	NULL	NULL	NULL	NULL	NULL	NULL	NULL	NULL	NULL	NULL	NULL	NULL	NULL	NULL	NULL	NULL	NULL	NULL	NULL	NULL	NULL	NULL	NULL	NULL
TMA Blocker Split Nostril Olfactometer_Pilot 2	30	1	<?xml version="1.0"?>\n<Clock xmlns:dt="urn:schemas-microsoft-com:datatypes"><Description dt:dt="string">E-Prime Primary Realtime Clock</Description><StartTime><Timestamp dt:dt="int">0</Timestamp><DateUtc dt:dt="string">2016-07-11T17:56:03Z</DateUtc></StartTime><FrequencyChanges><FrequencyChange><Frequency dt:dt="r8">2793160000</Frequency><Timestamp dt:dt="r8">3.39725759861729E+15</Timestamp><Current dt:dt="r8">0</Current><DateUtc dt:dt="string">2016-07-11T17:56:03Z</DateUtc></FrequencyChange></FrequencyChanges></Clock>\n	TMA Blocker Split Nostril Olfactometer_Pilot 2-30-1	74.912	1.0.0.1449	1	0		-999999	9	3803793	0	q	30797	3834590	-1190413399	2.0.10.242	2.0.10.242	07-11-2016	7/11/2016 5:56:03 PM	13:56:03	2.0.10.147	16	GREEN	NULL	NULL	TestProcA	NULL	Train1	NULL	NULL	NULL	NULL	NULL	NULL	NULL	NULL	NULL	Yes	1	1	1	NULL	NULL	NULL	1	NULL	Fishy	Green	404	NULL	3	24	NULL	training	Strength of the Odor (How fishy is it?)	NULL	NULL	NULL	NULL	NULL	NULL	NULL	NULL	NULL	NULL	NULL	NULL	NULL	NULL	NULL	NULL	TrainList	1	1	1	NULL	NULL	NULL	NULL	NULL	NULL	NULL	NULL	NULL	1	NULL	NULL	NULL	NULL	NULL	NULL	Green	NULL	NULL	NULL	NULL	NULL	NULL	NULL	NULL	NULL	NULL	NULL	NULL	1	1	1	PrepareProc	Strength of the Odor (How fishy is it?)	Prepare	NULL	NULL	NULL	NULL	NULL	NULL	NULL	NULL	NULL
TMA Blocker Split Nostril Olfactometer_Pilot 2	30	1	<?xml version="1.0"?>\n<Clock xmlns:dt="urn:schemas-microsoft-com:datatypes"><Description dt:dt="string">E-Prime Primary Realtime Clock</Description><StartTime><Timestamp dt:dt="int">0</Timestamp><DateUtc dt:dt="string">2016-07-11T17:56:03Z</DateUtc></StartTime><FrequencyChanges><FrequencyChange><Frequency dt:dt="r8">2793160000</Frequency><Timestamp dt:dt="r8">3.39725759861729E+15</Timestamp><Current dt:dt="r8">0</Current><DateUtc dt:dt="string">2016-07-11T17:56:03Z</DateUtc></FrequencyChange></FrequencyChanges></Clock>\n	TMA Blocker Split Nostril Olfactometer_Pilot 2-30-1	74.912	1.0.0.1449	1	0		-999999	9	3803793	0	q	30797	3834590	-1190413399	2.0.10.242	2.0.10.242	07-11-2016	7/11/2016 5:56:03 PM	13:56:03	2.0.10.147	16	GREEN	NULL	NULL	TestProcA	NULL	Train1	NULL	NULL	NULL	NULL	NULL	NULL	NULL	NULL	NULL	Yes	1	1	1	NULL	NULL	NULL	2	NULL	Green	Green	432	NULL	72	24	NULL	training	Strength of the Odor (How green is it?)	NULL	NULL	NULL	NULL	NULL	NULL	NULL	NULL	NULL	NULL	NULL	NULL	NULL	NULL	NULL	NULL	TrainList	2	1	2	NULL	NULL	NULL	NULL	NULL	NULL	NULL	NULL	NULL	1	NULL	NULL	NULL	NULL	NULL	NULL	Green	NULL	NULL	NULL	NULL	NULL	NULL	NULL	NULL	NULL	NULL	NULL	NULL	1	2	2	PrepareProc	Strength of the Odor (How green is it?)	Prepare	NULL	NULL	NULL	NULL	NULL	NULL	NULL	NULL	NULL
TMA Blocker Split Nostril Olfactometer_Pilot 2	30	1	<?xml version="1.0"?>\n<Clock xmlns:dt="urn:schemas-microsoft-com:datatypes"><Description dt:dt="string">E-Prime Primary Realtime Clock</Description><StartTime><Timestamp dt:dt="int">0</Timestamp><DateUtc dt:dt="string">2016-07-11T17:56:03Z</DateUtc></StartTime><FrequencyChanges><FrequencyChange><Frequency dt:dt="r8">2793160000</Frequency><Timestamp dt:dt="r8">3.39725759861729E+15</Timestamp><Current dt:dt="r8">0</Current><DateUtc dt:dt="string">2016-07-11T17:56:03Z</DateUtc></FrequencyChange></FrequencyChanges></Clock>\n	TMA Blocker Split Nostril Olfactometer_Pilot 2-30-1	74.912	1.0.0.1449	1	0		-999999	9	3803793	0	q	30797	3834590	-1190413399	2.0.10.242	2.0.10.242	07-11-2016	7/11/2016 5:56:03 PM	13:56:03	2.0.10.147	16	GREEN	NULL	NULL	TestProcA	NULL	Train1	NULL	NULL	NULL	NULL	NULL	NULL	NULL	NULL	NULL	Yes	1	1	1	NULL	NULL	NULL	3	2	NULL	Green	424	NULL	3	24	Fishy	Quiz	How strong is the odor?	1	1	1	NULL	NULL	NULL	0	2	-999999	39	1309194	0	1	3771	1312965	NULL	QuizList	NULL	NULL	NULL	NULL	NULL	NULL	NULL	NULL	NULL	NULL	NULL	NULL	1	NULL	2	NULL	NULL	NULL	NULL	Green	NULL	NULL	NULL	NULL	NULL	NULL	NULL	NULL	NULL	NULL	NULL	NULL	1	3	3	PrepareProc	How strong is the odor?	Prepare	NULL	NULL	NULL	NULL	NULL	NULL	NULL	NULL	NULL
TMA Blocker Split Nostril Olfactometer_Pilot 2	30	1	<?xml version="1.0"?>\n<Clock xmlns:dt="urn:schemas-microsoft-com:datatypes"><Description dt:dt="string">E-Prime Primary Realtime Clock</Description><StartTime><Timestamp dt:dt="int">0</Timestamp><DateUtc dt:dt="string">2016-07-11T17:56:03Z</DateUtc></StartTime><FrequencyChanges><FrequencyChange><Frequency dt:dt="r8">2793160000</Frequency><Timestamp dt:dt="r8">3.39725759861729E+15</Timestamp><Current dt:dt="r8">0</Current><DateUtc dt:dt="string">2016-07-11T17:56:03Z</DateUtc></FrequencyChange></FrequencyChanges></Clock>\n	TMA Blocker Split Nostril Olfactometer_Pilot 2-30-1	74.912	1.0.0.1449	1	0		-999999	9	3803793	0	q	30797	3834590	-1190413399	2.0.10.242	2.0.10.242	07-11-2016	7/11/2016 5:56:03 PM	13:56:03	2.0.10.147	16	GREEN	NULL	NULL	TestProcA	NULL	Train1	NULL	NULL	NULL	NULL	NULL	NULL	NULL	NULL	NULL	Yes	1	1	1	NULL	NULL	NULL	4	1	NULL	Green	496	NULL	72	24	Green	Quiz	How strong is the odor?	2	1	2	NULL	NULL	NULL	1	1	-999999	39	1361616	0	1	2828	1364444	NULL	QuizList	NULL	NULL	NULL	NULL	NULL	NULL	NULL	NULL	NULL	NULL	NULL	NULL	1	NULL	1	NULL	NULL	NULL	NULL	Green	NULL	NULL	NULL	NULL	NULL	NULL	NULL	NULL	NULL	NULL	NULL	NULL	1	4	4	PrepareProc	How strong is the odor?	Prepare	NULL	NULL	NULL	NULL	NULL	NULL	NULL	NULL	NULL
TMA Blocker Split Nostril Olfactometer_Pilot 2	30	1	<?xml version="1.0"?>\n<Clock xmlns:dt="urn:schemas-microsoft-com:datatypes"><Description dt:dt="string">E-Prime Primary Realtime Clock</Description><StartTime><Timestamp dt:dt="int">0</Timestamp><DateUtc dt:dt="string">2016-07-11T17:56:03Z</DateUtc></StartTime><FrequencyChanges><FrequencyChange><Frequency dt:dt="r8">2793160000</Frequency><Timestamp dt:dt="r8">3.39725759861729E+15</Timestamp><Current dt:dt="r8">0</Current><DateUtc dt:dt="string">2016-07-11T17:56:03Z</DateUtc></FrequencyChange></FrequencyChanges></Clock>\n	TMA Blocker Split Nostril Olfactometer_Pilot 2-30-1	74.912	1.0.0.1449	1	0		-999999	9	3803793	0	q	30797	3834590	-1190413399	2.0.10.242	2.0.10.242	07-11-2016	7/11/2016 5:56:03 PM	13:56:03	2.0.10.147	16	GREEN	NULL	NULL	TestProcA	NULL	Train1	NULL	NULL	NULL	NULL	NULL	NULL	NULL	NULL	NULL	Yes	1	1	1	NULL	NULL	NULL	5	2	NULL	Green	494	NULL	66	9	Fishy	Quiz	How strong is the odor?	4	1	3	NULL	NULL	NULL	0	2	-999999	39	1413758	0	1	2596	1416354	NULL	QuizList	NULL	NULL	NULL	NULL	NULL	NULL	NULL	NULL	NULL	NULL	NULL	NULL	1	NULL	2	NULL	NULL	NULL	NULL	Green	NULL	NULL	NULL	NULL	NULL	NULL	NULL	NULL	NULL	NULL	NULL	NULL	1	5	5	PrepareProc	How strong is the odor?	Prepare	NULL	NULL	NULL	NULL	NULL	NULL	NULL	NULL	NULL
TMA Blocker Split Nostril Olfactometer_Pilot 2	30	1	<?xml version="1.0"?>\n<Clock xmlns:dt="urn:schemas-microsoft-com:datatypes"><Description dt:dt="string">E-Prime Primary Realtime Clock</Description><StartTime><Timestamp dt:dt="int">0</Timestamp><DateUtc dt:dt="string">2016-07-11T17:56:03Z</DateUtc></StartTime><FrequencyChanges><FrequencyChange><Frequency dt:dt="r8">2793160000</Frequency><Timestamp dt:dt="r8">3.39725759861729E+15</Timestamp><Current dt:dt="r8">0</Current><DateUtc dt:dt="string">2016-07-11T17:56:03Z</DateUtc></FrequencyChange></FrequencyChanges></Clock>\n	TMA Blocker Split Nostril Olfactometer_Pilot 2-30-1	74.912	1.0.0.1449	1	0		-999999	9	3803793	0	q	30797	3834590	-1190413399	2.0.10.242	2.0.10.242	07-11-2016	7/11/2016 5:56:03 PM	13:56:03	2.0.10.147	16	GREEN	NULL	NULL	TestProcA	NULL	Train1	NULL	NULL	NULL	NULL	NULL	NULL	NULL	NULL	NULL	Yes	1	1	1	NULL	NULL	NULL	6	1	NULL	Green	437	NULL	66	48	Green	Quiz	How strong is the odor?	3	1	4	NULL	NULL	NULL	1	1	-999999	39	1465712	0	1	3152	1468864	NULL	QuizList	NULL	NULL	NULL	NULL	NULL	NULL	NULL	NULL	NULL	NULL	NULL	NULL	1	NULL	1	NULL	NULL	NULL	NULL	Green	NULL	NULL	NULL	NULL	NULL	NULL	NULL	NULL	NULL	NULL	NULL	NULL	1	6	6	PrepareProc	How strong is the odor?	Prepare	NULL	NULL	NULL	NULL	NULL	NULL	NULL	NULL	NULL
TMA Blocker Split Nostril Olfactometer_Pilot 2	30	1	<?xml version="1.0"?>\n<Clock xmlns:dt="urn:schemas-microsoft-com:datatypes"><Description dt:dt="string">E-Prime Primary Realtime Clock</Description><StartTime><Timestamp dt:dt="int">0</Timestamp><DateUtc dt:dt="string">2016-07-11T17:56:03Z</DateUtc></StartTime><FrequencyChanges><FrequencyChange><Frequency dt:dt="r8">2793160000</Frequency><Timestamp dt:dt="r8">3.39725759861729E+15</Timestamp><Current dt:dt="r8">0</Current><DateUtc dt:dt="string">2016-07-11T17:56:03Z</DateUtc></FrequencyChange></FrequencyChanges></Clock>\n	TMA Blocker Split Nostril Olfactometer_Pilot 2-30-1	74.912	1.0.0.1449	1	0		-999999	9	3803793	0	q	30797	3834590	-1190413399	2.0.10.242	2.0.10.242	07-11-2016	7/11/2016 5:56:03 PM	13:56:03	2.0.10.147	17	GREEN	NULL	NULL	TestProcA	NULL	Train1	NULL	NULL	NULL	NULL	NULL	NULL	NULL	NULL	NULL	Yes	1	2	2	NULL	NULL	NULL	1	NULL	Fishy	Green	495	NULL	3	24	NULL	training	Strength of the Odor (How fishy is it?)	NULL	NULL	NULL	NULL	NULL	NULL	NULL	NULL	NULL	NULL	NULL	NULL	NULL	NULL	NULL	NULL	TrainList	1	2	3	NULL	NULL	NULL	NULL	NULL	NULL	NULL	NULL	NULL	1	NULL	NULL	NULL	NULL	NULL	NULL	Green	NULL	NULL	NULL	NULL	NULL	NULL	NULL	NULL	NULL	NULL	NULL	NULL	1	7	7	PrepareProc	Strength of the Odor (How fishy is it?)	Prepare	NULL	NULL	NULL	NULL	NULL	NULL	NULL	NULL	NULL
TMA Blocker Split Nostril Olfactometer_Pilot 2	30	1	<?xml version="1.0"?>\n<Clock xmlns:dt="urn:schemas-microsoft-com:datatypes"><Description dt:dt="string">E-Prime Primary Realtime Clock</Description><StartTime><Timestamp dt:dt="int">0</Timestamp><DateUtc dt:dt="string">2016-07-11T17:56:03Z</DateUtc></StartTime><FrequencyChanges><FrequencyChange><Frequency dt:dt="r8">2793160000</Frequency><Timestamp dt:dt="r8">3.39725759861729E+15</Timestamp><Current dt:dt="r8">0</Current><DateUtc dt:dt="string">2016-07-11T17:56:03Z</DateUtc></FrequencyChange></FrequencyChanges></Clock>\n	TMA Blocker Split Nostril Olfactometer_Pilot 2-30-1	74.912	1.0.0.1449	1	0		-999999	9	3803793	0	q	30797	3834590	-1190413399	2.0.10.242	2.0.10.242	07-11-2016	7/11/2016 5:56:03 PM	13:56:03	2.0.10.147	17	GREEN	NULL	NULL	TestProcA	NULL	Train1	NULL	NULL	NULL	NULL	NULL	NULL	NULL	NULL	NULL	Yes	1	2	2	NULL	NULL	NULL	2	NULL	Green	Green	461	NULL	72	24	NULL	training	Strength of the Odor (How green is it?)	NULL	NULL	NULL	NULL	NULL	NULL	NULL	NULL	NULL	NULL	NULL	NULL	NULL	NULL	NULL	NULL	TrainList	2	2	4	NULL	NULL	NULL	NULL	NULL	NULL	NULL	NULL	NULL	1	NULL	NULL	NULL	NULL	NULL	NULL	Green	NULL	NULL	NULL	NULL	NULL	NULL	NULL	NULL	NULL	NULL	NULL	NULL	1	8	8	PrepareProc	Strength of the Odor (How green is it?)	Prepare	NULL	NULL	NULL	NULL	NULL	NULL	NULL	NULL	NULL
TMA Blocker Split Nostril Olfactometer_Pilot 2	30	1	<?xml version="1.0"?>\n<Clock xmlns:dt="urn:schemas-microsoft-com:datatypes"><Description dt:dt="string">E-Prime Primary Realtime Clock</Description><StartTime><Timestamp dt:dt="int">0</Timestamp><DateUtc dt:dt="string">2016-07-11T17:56:03Z</DateUtc></StartTime><FrequencyChanges><FrequencyChange><Frequency dt:dt="r8">2793160000</Frequency><Timestamp dt:dt="r8">3.39725759861729E+15</Timestamp><Current dt:dt="r8">0</Current><DateUtc dt:dt="string">2016-07-11T17:56:03Z</DateUtc></FrequencyChange></FrequencyChanges></Clock>\n	TMA Blocker Split Nostril Olfactometer_Pilot 2-30-1	74.912	1.0.0.1449	1	0		-999999	9	3803793	0	q	30797	3834590	-1190413399	2.0.10.242	2.0.10.242	07-11-2016	7/11/2016 5:56:03 PM	13:56:03	2.0.10.147	17	GREEN	NULL	NULL	TestProcA	NULL	Train1	NULL	NULL	NULL	NULL	NULL	NULL	NULL	NULL	NULL	Yes	1	2	2	NULL	NULL	NULL	3	2	NULL	Green	439	NULL	66	9	Fishy	Quiz	How strong is the odor?	4	2	5	NULL	NULL	NULL	0	2	-999999	39	1625701	0	1	550	1626251	NULL	QuizList	NULL	NULL	NULL	NULL	NULL	NULL	NULL	NULL	NULL	NULL	NULL	NULL	1	NULL	2	NULL	NULL	NULL	NULL	Green	NULL	NULL	NULL	NULL	NULL	NULL	NULL	NULL	NULL	NULL	NULL	NULL	1	9	9	PrepareProc	How strong is the odor?	Prepare	NULL	NULL	NULL	NULL	NULL	NULL	NULL	NULL	NULL
TMA Blocker Split Nostril Olfactometer_Pilot 2	30	1	<?xml version="1.0"?>\n<Clock xmlns:dt="urn:schemas-microsoft-com:datatypes"><Description dt:dt="string">E-Prime Primary Realtime Clock</Description><StartTime><Timestamp dt:dt="int">0</Timestamp><DateUtc dt:dt="string">2016-07-11T17:56:03Z</DateUtc></StartTime><FrequencyChanges><FrequencyChange><Frequency dt:dt="r8">2793160000</Frequency><Timestamp dt:dt="r8">3.39725759861729E+15</Timestamp><Current dt:dt="r8">0</Current><DateUtc dt:dt="string">2016-07-11T17:56:03Z</DateUtc></FrequencyChange></FrequencyChanges></Clock>\n	TMA Blocker Split Nostril Olfactometer_Pilot 2-30-1	74.912	1.0.0.1449	1	0		-999999	9	3803793	0	q	30797	3834590	-1190413399	2.0.10.242	2.0.10.242	07-11-2016	7/11/2016 5:56:03 PM	13:56:03	2.0.10.147	17	GREEN	NULL	NULL	TestProcA	NULL	Train1	NULL	NULL	NULL	NULL	NULL	NULL	NULL	NULL	NULL	Yes	1	2	2	NULL	NULL	NULL	4	1	NULL	Green	434	NULL	72	24	Green	Quiz	How strong is the odor?	2	2	6	NULL	NULL	NULL	1	1	-999999	39	1672757	0	1	2317	1675074	NULL	QuizList	NULL	NULL	NULL	NULL	NULL	NULL	NULL	NULL	NULL	NULL	NULL	NULL	1	NULL	1	NULL	NULL	NULL	NULL	Green	NULL	NULL	NULL	NULL	NULL	NULL	NULL	NULL	NULL	NULL	NULL	NULL	1	10	10	PrepareProc	How strong is the odor?	Prepare	NULL	NULL	NULL	NULL	NULL	NULL	NULL	NULL	NULL
TMA Blocker Split Nostril Olfactometer_Pilot 2	30	1	<?xml version="1.0"?>\n<Clock xmlns:dt="urn:schemas-microsoft-com:datatypes"><Description dt:dt="string">E-Prime Primary Realtime Clock</Description><StartTime><Timestamp dt:dt="int">0</Timestamp><DateUtc dt:dt="string">2016-07-11T17:56:03Z</DateUtc></StartTime><FrequencyChanges><FrequencyChange><Frequency dt:dt="r8">2793160000</Frequency><Timestamp dt:dt="r8">3.39725759861729E+15</Timestamp><Current dt:dt="r8">0</Current><DateUtc dt:dt="string">2016-07-11T17:56:03Z</DateUtc></FrequencyChange></FrequencyChanges></Clock>\n	TMA Blocker Split Nostril Olfactometer_Pilot 2-30-1	74.912	1.0.0.1449	1	0		-999999	9	3803793	0	q	30797	3834590	-1190413399	2.0.10.242	2.0.10.242	07-11-2016	7/11/2016 5:56:03 PM	13:56:03	2.0.10.147	17	GREEN	NULL	NULL	TestProcA	NULL	Train1	NULL	NULL	NULL	NULL	NULL	NULL	NULL	NULL	NULL	Yes	1	2	2	NULL	NULL	NULL	5	1	NULL	Green	486	NULL	66	48	Green	Quiz	How strong is the odor?	3	2	7	NULL	NULL	NULL	0	1	-999999	39	1722295	0	2	3201	1725496	NULL	QuizList	NULL	NULL	NULL	NULL	NULL	NULL	NULL	NULL	NULL	NULL	NULL	NULL	1	NULL	1	NULL	NULL	NULL	NULL	Green	NULL	NULL	NULL	NULL	NULL	NULL	NULL	NULL	NULL	NULL	NULL	NULL	1	11	11	PrepareProc	How strong is the odor?	Prepare	NULL	NULL	NULL	NULL	NULL	NULL	NULL	NULL	NULL
TMA Blocker Split Nostril Olfactometer_Pilot 2	30	1	<?xml version="1.0"?>\n<Clock xmlns:dt="urn:schemas-microsoft-com:datatypes"><Description dt:dt="string">E-Prime Primary Realtime Clock</Description><StartTime><Timestamp dt:dt="int">0</Timestamp><DateUtc dt:dt="string">2016-07-11T17:56:03Z</DateUtc></StartTime><FrequencyChanges><FrequencyChange><Frequency dt:dt="r8">2793160000</Frequency><Timestamp dt:dt="r8">3.39725759861729E+15</Timestamp><Current dt:dt="r8">0</Current><DateUtc dt:dt="string">2016-07-11T17:56:03Z</DateUtc></FrequencyChange></FrequencyChanges></Clock>\n	TMA Blocker Split Nostril Olfactometer_Pilot 2-30-1	74.912	1.0.0.1449	1	0		-999999	9	3803793	0	q	30797	3834590	-1190413399	2.0.10.242	2.0.10.242	07-11-2016	7/11/2016 5:56:03 PM	13:56:03	2.0.10.147	17	GREEN	NULL	NULL	TestProcA	NULL	Train1	NULL	NULL	NULL	NULL	NULL	NULL	NULL	NULL	NULL	Yes	1	2	2	NULL	NULL	NULL	6	2	NULL	Green	410	NULL	3	24	Fishy	Quiz	How strong is the odor?	1	2	8	NULL	NULL	NULL	0	2	-999999	39	1771847	0	1	1320	1773167	NULL	QuizList	NULL	NULL	NULL	NULL	NULL	NULL	NULL	NULL	NULL	NULL	NULL	NULL	1	NULL	2	NULL	NULL	NULL	NULL	Green	NULL	NULL	NULL	NULL	NULL	NULL	NULL	NULL	NULL	NULL	NULL	NULL	1	12	12	PrepareProc	How strong is the odor?	Prepare	NULL	NULL	NULL	NULL	NULL	NULL	NULL	NULL	NULL
TMA Blocker Split Nostril Olfactometer_Pilot 2	30	1	<?xml version="1.0"?>\n<Clock xmlns:dt="urn:schemas-microsoft-com:datatypes"><Description dt:dt="string">E-Prime Primary Realtime Clock</Description><StartTime><Timestamp dt:dt="int">0</Timestamp><DateUtc dt:dt="string">2016-07-11T17:56:03Z</DateUtc></StartTime><FrequencyChanges><FrequencyChange><Frequency dt:dt="r8">2793160000</Frequency><Timestamp dt:dt="r8">3.39725759861729E+15</Timestamp><Current dt:dt="r8">0</Current><DateUtc dt:dt="string">2016-07-11T17:56:03Z</DateUtc></FrequencyChange></FrequencyChanges></Clock>\n	TMA Blocker Split Nostril Olfactometer_Pilot 2-30-1	74.912	1.0.0.1449	1	0		-999999	9	3803793	0	q	30797	3834590	-1190413399	2.0.10.242	2.0.10.242	07-11-2016	7/11/2016 5:56:03 PM	13:56:03	2.0.10.147	18	GREEN	NULL	NULL	BlockProcA	NULL	Test1	NULL	NULL	NULL	1	1	1	NULL	NULL	NULL	No	NULL	NULL	NULL	NULL	NULL	NULL	1	NULL	NULL	NULL	NULL	Blank	66	24	NULL	TrialProc	NULL	NULL	NULL	NULL	NULL	NULL	NULL	NULL	NULL	NULL	NULL	NULL	NULL	NULL	NULL	NULL	Blank	TrialList	NULL	NULL	NULL	NULL	NULL	NULL	9	1	1	NULL	NULL	NULL	1	NULL	NULL	NULL	NULL	NULL	NULL	NULL	NULL	NULL	NULL	NULL	NULL	NULL	NULL	NULL	NULL	NULL	NULL	NULL	1	13	13	PrepareProc	NULL	Prepare	NULL	NULL	NULL	NULL	NULL	NULL	NULL	NULL	NULL
TMA Blocker Split Nostril Olfactometer_Pilot 2	30	1	<?xml version="1.0"?>\n<Clock xmlns:dt="urn:schemas-microsoft-com:datatypes"><Description dt:dt="string">E-Prime Primary Realtime Clock</Description><StartTime><Timestamp dt:dt="int">0</Timestamp><DateUtc dt:dt="string">2016-07-11T17:56:03Z</DateUtc></StartTime><FrequencyChanges><FrequencyChange><Frequency dt:dt="r8">2793160000</Frequency><Timestamp dt:dt="r8">3.39725759861729E+15</Timestamp><Current dt:dt="r8">0</Current><DateUtc dt:dt="string">2016-07-11T17:56:03Z</DateUtc></FrequencyChange></FrequencyChanges></Clock>\n	TMA Blocker Split Nostril Olfactometer_Pilot 2-30-1	74.912	1.0.0.1449	1	0		-999999	9	3803793	0	q	30797	3834590	-1190413399	2.0.10.242	2.0.10.242	07-11-2016	7/11/2016 5:56:03 PM	13:56:03	2.0.10.147	18	GREEN	NULL	NULL	BlockProcA	NULL	Test1	NULL	NULL	NULL	1	1	1	NULL	NULL	NULL	No	NULL	NULL	NULL	NULL	NULL	NULL	1	NULL	NULL	NULL	NULL	Blank	66	24	NULL	TrialProc	NULL	NULL	NULL	NULL	NULL	NULL	NULL	NULL	NULL	NULL	NULL	NULL	NULL	NULL	NULL	NULL	Blank	TrialList	NULL	NULL	NULL	NULL	NULL	NULL	9	1	1	NULL	NULL	NULL	2	NULL	NULL	1	1	1	NULL	Green	439	551	NULL	NULL	NULL	NULL	NULL	NULL	NULL	NULL	NULL	1	NULL	NULL	NULL	ExperimentProc	How intense is the odor?	Experiment	NULL	NULL	NULL	NULL	NULL	NULL	NULL	NULL	?
TMA Blocker Split Nostril Olfactometer_Pilot 2	30	1	<?xml version="1.0"?>\n<Clock xmlns:dt="urn:schemas-microsoft-com:datatypes"><Description dt:dt="string">E-Prime Primary Realtime Clock</Description><StartTime><Timestamp dt:dt="int">0</Timestamp><DateUtc dt:dt="string">2016-07-11T17:56:03Z</DateUtc></StartTime><FrequencyChanges><FrequencyChange><Frequency dt:dt="r8">2793160000</Frequency><Timestamp dt:dt="r8">3.39725759861729E+15</Timestamp><Current dt:dt="r8">0</Current><DateUtc dt:dt="string">2016-07-11T17:56:03Z</DateUtc></FrequencyChange></FrequencyChanges></Clock>\n	TMA Blocker Split Nostril Olfactometer_Pilot 2-30-1	74.912	1.0.0.1449	1	0		-999999	9	3803793	0	q	30797	3834590	-1190413399	2.0.10.242	2.0.10.242	07-11-2016	7/11/2016 5:56:03 PM	13:56:03	2.0.10.147	18	GREEN	NULL	NULL	BlockProcA	NULL	Test1	NULL	NULL	NULL	1	1	1	NULL	NULL	NULL	No	NULL	NULL	NULL	NULL	NULL	NULL	1	NULL	NULL	NULL	NULL	Blank	66	24	NULL	TrialProc	NULL	NULL	NULL	NULL	NULL	NULL	NULL	NULL	NULL	NULL	NULL	NULL	NULL	NULL	NULL	NULL	Blank	TrialList	NULL	NULL	NULL	NULL	NULL	NULL	9	1	1	NULL	NULL	NULL	3	NULL	1	NULL	NULL	NULL	NULL	NULL	NULL	NULL	0	1	-999999	13	1900145	0	2	3171	1903316	NULL	NULL	NULL	NULL	SongTrial	NULL	SoundList	NULL	NULL	9	1	1	NULL	NULL	NULL	NULL
TMA Blocker Split Nostril Olfactometer_Pilot 2	30	1	<?xml version="1.0"?>\n<Clock xmlns:dt="urn:schemas-microsoft-com:datatypes"><Description dt:dt="string">E-Prime Primary Realtime Clock</Description><StartTime><Timestamp dt:dt="int">0</Timestamp><DateUtc dt:dt="string">2016-07-11T17:56:03Z</DateUtc></StartTime><FrequencyChanges><FrequencyChange><Frequency dt:dt="r8">2793160000</Frequency><Timestamp dt:dt="r8">3.39725759861729E+15</Timestamp><Current dt:dt="r8">0</Current><DateUtc dt:dt="string">2016-07-11T17:56:03Z</DateUtc></FrequencyChange></FrequencyChanges></Clock>\n	TMA Blocker Split Nostril Olfactometer_Pilot 2-30-1	74.912	1.0.0.1449	1	0		-999999	9	3803793	0	q	30797	3834590	-1190413399	2.0.10.242	2.0.10.242	07-11-2016	7/11/2016 5:56:03 PM	13:56:03	2.0.10.147	18	GREEN	NULL	NULL	BlockProcA	NULL	Test1	NULL	NULL	NULL	1	1	1	NULL	NULL	NULL	No	NULL	NULL	NULL	NULL	NULL	NULL	2	NULL	NULL	NULL	NULL	Blank	66	33	NULL	TrialProc	NULL	NULL	NULL	NULL	NULL	NULL	NULL	NULL	NULL	NULL	NULL	NULL	NULL	NULL	NULL	NULL	TMA+Nonenol	TrialList	NULL	NULL	NULL	NULL	NULL	NULL	6	1	2	NULL	NULL	NULL	1	NULL	NULL	NULL	NULL	NULL	NULL	NULL	NULL	NULL	NULL	NULL	NULL	NULL	NULL	NULL	NULL	NULL	NULL	NULL	1	14	14	PrepareProc	NULL	Prepare	NULL	NULL	NULL	NULL	NULL	NULL	NULL	NULL	NULL
TMA Blocker Split Nostril Olfactometer_Pilot 2	30	1	<?xml version="1.0"?>\n<Clock xmlns:dt="urn:schemas-microsoft-com:datatypes"><Description dt:dt="string">E-Prime Primary Realtime Clock</Description><StartTime><Timestamp dt:dt="int">0</Timestamp><DateUtc dt:dt="string">2016-07-11T17:56:03Z</DateUtc></StartTime><FrequencyChanges><FrequencyChange><Frequency dt:dt="r8">2793160000</Frequency><Timestamp dt:dt="r8">3.39725759861729E+15</Timestamp><Current dt:dt="r8">0</Current><DateUtc dt:dt="string">2016-07-11T17:56:03Z</DateUtc></FrequencyChange></FrequencyChanges></Clock>\n	TMA Blocker Split Nostril Olfactometer_Pilot 2-30-1	74.912	1.0.0.1449	1	0		-999999	9	3803793	0	q	30797	3834590	-1190413399	2.0.10.242	2.0.10.242	07-11-2016	7/11/2016 5:56:03 PM	13:56:03	2.0.10.147	18	GREEN	NULL	NULL	BlockProcA	NULL	Test1	NULL	NULL	NULL	1	1	1	NULL	NULL	NULL	No	NULL	NULL	NULL	NULL	NULL	NULL	2	NULL	NULL	NULL	NULL	Blank	66	33	NULL	TrialProc	NULL	NULL	NULL	NULL	NULL	NULL	NULL	NULL	NULL	NULL	NULL	NULL	NULL	NULL	NULL	NULL	TMA+Nonenol	TrialList	NULL	NULL	NULL	NULL	NULL	NULL	6	1	2	NULL	NULL	NULL	2	NULL	NULL	1	2	2	NULL	Green	403	494	NULL	NULL	NULL	NULL	NULL	NULL	NULL	NULL	NULL	1	NULL	NULL	NULL	ExperimentProc	How intense is the odor?	Experiment	NULL	NULL	NULL	NULL	NULL	NULL	NULL	NULL	?
TMA Blocker Split Nostril Olfactometer_Pilot 2	30	1	<?xml version="1.0"?>\n<Clock xmlns:dt="urn:schemas-microsoft-com:datatypes"><Description dt:dt="string">E-Prime Primary Realtime Clock</Description><StartTime><Timestamp dt:dt="int">0</Timestamp><DateUtc dt:dt="string">2016-07-11T17:56:03Z</DateUtc></StartTime><FrequencyChanges><FrequencyChange><Frequency dt:dt="r8">2793160000</Frequency><Timestamp dt:dt="r8">3.39725759861729E+15</Timestamp><Current dt:dt="r8">0</Current><DateUtc dt:dt="string">2016-07-11T17:56:03Z</DateUtc></FrequencyChange></FrequencyChanges></Clock>\n	TMA Blocker Split Nostril Olfactometer_Pilot 2-30-1	74.912	1.0.0.1449	1	0		-999999	9	3803793	0	q	30797	3834590	-1190413399	2.0.10.242	2.0.10.242	07-11-2016	7/11/2016 5:56:03 PM	13:56:03	2.0.10.147	18	GREEN	NULL	NULL	BlockProcA	NULL	Test1	NULL	NULL	NULL	1	1	1	NULL	NULL	NULL	No	NULL	NULL	NULL	NULL	NULL	NULL	2	NULL	NULL	NULL	NULL	Blank	66	33	NULL	TrialProc	NULL	NULL	NULL	NULL	NULL	NULL	NULL	NULL	NULL	NULL	NULL	NULL	NULL	NULL	NULL	NULL	TMA+Nonenol	TrialList	NULL	NULL	NULL	NULL	NULL	NULL	6	1	2	NULL	NULL	NULL	3	NULL	2	NULL	NULL	NULL	NULL	NULL	NULL	NULL	0	2	-999999	13	1952861	0	1	2093	1954954	NULL	NULL	NULL	NULL	SongTrial	NULL	SoundList	NULL	NULL	12	1	2	NULL	NULL	NULL	NULL
TMA Blocker Split Nostril Olfactometer_Pilot 2	30	1	<?xml version="1.0"?>\n<Clock xmlns:dt="urn:schemas-microsoft-com:datatypes"><Description dt:dt="string">E-Prime Primary Realtime Clock</Description><StartTime><Timestamp dt:dt="int">0</Timestamp><DateUtc dt:dt="string">2016-07-11T17:56:03Z</DateUtc></StartTime><FrequencyChanges><FrequencyChange><Frequency dt:dt="r8">2793160000</Frequency><Timestamp dt:dt="r8">3.39725759861729E+15</Timestamp><Current dt:dt="r8">0</Current><DateUtc dt:dt="string">2016-07-11T17:56:03Z</DateUtc></FrequencyChange></FrequencyChanges></Clock>\n	TMA Blocker Split Nostril Olfactometer_Pilot 2-30-1	74.912	1.0.0.1449	1	0		-999999	9	3803793	0	q	30797	3834590	-1190413399	2.0.10.242	2.0.10.242	07-11-2016	7/11/2016 5:56:03 PM	13:56:03	2.0.10.147	18	GREEN	NULL	NULL	BlockProcA	NULL	Test1	NULL	NULL	NULL	1	1	1	NULL	NULL	NULL	No	NULL	NULL	NULL	NULL	NULL	NULL	3	NULL	NULL	NULL	NULL	Blank	66	48	NULL	TrialProc	NULL	NULL	NULL	NULL	NULL	NULL	NULL	NULL	NULL	NULL	NULL	NULL	NULL	NULL	NULL	NULL	Nonenol	TrialList	NULL	NULL	NULL	NULL	NULL	NULL	4	1	3	NULL	NULL	NULL	1	NULL	NULL	NULL	NULL	NULL	NULL	NULL	NULL	NULL	NULL	NULL	NULL	NULL	NULL	NULL	NULL	NULL	NULL	NULL	1	15	15	PrepareProc	NULL	Prepare	NULL	NULL	NULL	NULL	NULL	NULL	NULL	NULL	NULL
TMA Blocker Split Nostril Olfactometer_Pilot 2	30	1	<?xml version="1.0"?>\n<Clock xmlns:dt="urn:schemas-microsoft-com:datatypes"><Description dt:dt="string">E-Prime Primary Realtime Clock</Description><StartTime><Timestamp dt:dt="int">0</Timestamp><DateUtc dt:dt="string">2016-07-11T17:56:03Z</DateUtc></StartTime><FrequencyChanges><FrequencyChange><Frequency dt:dt="r8">2793160000</Frequency><Timestamp dt:dt="r8">3.39725759861729E+15</Timestamp><Current dt:dt="r8">0</Current><DateUtc dt:dt="string">2016-07-11T17:56:03Z</DateUtc></FrequencyChange></FrequencyChanges></Clock>\n	TMA Blocker Split Nostril Olfactometer_Pilot 2-30-1	74.912	1.0.0.1449	1	0		-999999	9	3803793	0	q	30797	3834590	-1190413399	2.0.10.242	2.0.10.242	07-11-2016	7/11/2016 5:56:03 PM	13:56:03	2.0.10.147	18	GREEN	NULL	NULL	BlockProcA	NULL	Test1	NULL	NULL	NULL	1	1	1	NULL	NULL	NULL	No	NULL	NULL	NULL	NULL	NULL	NULL	3	NULL	NULL	NULL	NULL	Blank	66	48	NULL	TrialProc	NULL	NULL	NULL	NULL	NULL	NULL	NULL	NULL	NULL	NULL	NULL	NULL	NULL	NULL	NULL	NULL	Nonenol	TrialList	NULL	NULL	NULL	NULL	NULL	NULL	4	1	3	NULL	NULL	NULL	2	NULL	NULL	1	3	3	NULL	Green	493	416	NULL	NULL	NULL	NULL	NULL	NULL	NULL	NULL	NULL	1	NULL	NULL	NULL	ExperimentProc	How intense is the odor?	Experiment	NULL	NULL	NULL	NULL	NULL	NULL	NULL	NULL	?
TMA Blocker Split Nostril Olfactometer_Pilot 2	30	1	<?xml version="1.0"?>\n<Clock xmlns:dt="urn:schemas-microsoft-com:datatypes"><Description dt:dt="string">E-Prime Primary Realtime Clock</Description><StartTime><Timestamp dt:dt="int">0</Timestamp><DateUtc dt:dt="string">2016-07-11T17:56:03Z</DateUtc></StartTime><FrequencyChanges><FrequencyChange><Frequency dt:dt="r8">2793160000</Frequency><Timestamp dt:dt="r8">3.39725759861729E+15</Timestamp><Current dt:dt="r8">0</Current><DateUtc dt:dt="string">2016-07-11T17:56:03Z</DateUtc></FrequencyChange></FrequencyChanges></Clock>\n	TMA Blocker Split Nostril Olfactometer_Pilot 2-30-1	74.912	1.0.0.1449	1	0		-999999	9	3803793	0	q	30797	3834590	-1190413399	2.0.10.242	2.0.10.242	07-11-2016	7/11/2016 5:56:03 PM	13:56:03	2.0.10.147	18	GREEN	NULL	NULL	BlockProcA	NULL	Test1	NULL	NULL	NULL	1	1	1	NULL	NULL	NULL	No	NULL	NULL	NULL	NULL	NULL	NULL	3	NULL	NULL	NULL	NULL	Blank	66	48	NULL	TrialProc	NULL	NULL	NULL	NULL	NULL	NULL	NULL	NULL	NULL	NULL	NULL	NULL	NULL	NULL	NULL	NULL	Nonenol	TrialList	NULL	NULL	NULL	NULL	NULL	NULL	4	1	3	NULL	NULL	NULL	3	NULL	1	NULL	NULL	NULL	NULL	NULL	NULL	NULL	1	1	-999999	13	2000183	0	1	682	2000865	NULL	NULL	NULL	NULL	SongTrial	NULL	SoundList	NULL	NULL	5	1	3	NULL	NULL	NULL	NULL
TMA Blocker Split Nostril Olfactometer_Pilot 2	30	1	<?xml version="1.0"?>\n<Clock xmlns:dt="urn:schemas-microsoft-com:datatypes"><Description dt:dt="string">E-Prime Primary Realtime Clock</Description><StartTime><Timestamp dt:dt="int">0</Timestamp><DateUtc dt:dt="string">2016-07-11T17:56:03Z</DateUtc></StartTime><FrequencyChanges><FrequencyChange><Frequency dt:dt="r8">2793160000</Frequency><Timestamp dt:dt="r8">3.39725759861729E+15</Timestamp><Current dt:dt="r8">0</Current><DateUtc dt:dt="string">2016-07-11T17:56:03Z</DateUtc></FrequencyChange></FrequencyChanges></Clock>\n	TMA Blocker Split Nostril Olfactometer_Pilot 2-30-1	74.912	1.0.0.1449	1	0		-999999	9	3803793	0	q	30797	3834590	-1190413399	2.0.10.242	2.0.10.242	07-11-2016	7/11/2016 5:56:03 PM	13:56:03	2.0.10.147	18	GREEN	NULL	NULL	BlockProcA	NULL	Test1	NULL	NULL	NULL	1	1	1	NULL	NULL	NULL	No	NULL	NULL	NULL	NULL	NULL	NULL	4	NULL	NULL	NULL	NULL	TMA	3	48	NULL	TrialProc	NULL	NULL	NULL	NULL	NULL	NULL	NULL	NULL	NULL	NULL	NULL	NULL	NULL	NULL	NULL	NULL	Nonenol	TrialList	NULL	NULL	NULL	NULL	NULL	NULL	7	1	4	NULL	NULL	NULL	1	NULL	NULL	NULL	NULL	NULL	NULL	NULL	NULL	NULL	NULL	NULL	NULL	NULL	NULL	NULL	NULL	NULL	NULL	NULL	1	16	16	PrepareProc	NULL	Prepare	NULL	NULL	NULL	NULL	NULL	NULL	NULL	NULL	NULL
TMA Blocker Split Nostril Olfactometer_Pilot 2	30	1	<?xml version="1.0"?>\n<Clock xmlns:dt="urn:schemas-microsoft-com:datatypes"><Description dt:dt="string">E-Prime Primary Realtime Clock</Description><StartTime><Timestamp dt:dt="int">0</Timestamp><DateUtc dt:dt="string">2016-07-11T17:56:03Z</DateUtc></StartTime><FrequencyChanges><FrequencyChange><Frequency dt:dt="r8">2793160000</Frequency><Timestamp dt:dt="r8">3.39725759861729E+15</Timestamp><Current dt:dt="r8">0</Current><DateUtc dt:dt="string">2016-07-11T17:56:03Z</DateUtc></FrequencyChange></FrequencyChanges></Clock>\n	TMA Blocker Split Nostril Olfactometer_Pilot 2-30-1	74.912	1.0.0.1449	1	0		-999999	9	3803793	0	q	30797	3834590	-1190413399	2.0.10.242	2.0.10.242	07-11-2016	7/11/2016 5:56:03 PM	13:56:03	2.0.10.147	18	GREEN	NULL	NULL	BlockProcA	NULL	Test1	NULL	NULL	NULL	1	1	1	NULL	NULL	NULL	No	NULL	NULL	NULL	NULL	NULL	NULL	4	NULL	NULL	NULL	NULL	TMA	3	48	NULL	TrialProc	NULL	NULL	NULL	NULL	NULL	NULL	NULL	NULL	NULL	NULL	NULL	NULL	NULL	NULL	NULL	NULL	Nonenol	TrialList	NULL	NULL	NULL	NULL	NULL	NULL	7	1	4	NULL	NULL	NULL	2	NULL	NULL	1	4	4	NULL	Green	494	405	NULL	NULL	NULL	NULL	NULL	NULL	NULL	NULL	NULL	1	NULL	NULL	NULL	ExperimentProc	How intense is the odor?	Experiment	NULL	NULL	NULL	NULL	NULL	NULL	NULL	NULL	?
TMA Blocker Split Nostril Olfactometer_Pilot 2	30	1	<?xml version="1.0"?>\n<Clock xmlns:dt="urn:schemas-microsoft-com:datatypes"><Description dt:dt="string">E-Prime Primary Realtime Clock</Description><StartTime><Timestamp dt:dt="int">0</Timestamp><DateUtc dt:dt="string">2016-07-11T17:56:03Z</DateUtc></StartTime><FrequencyChanges><FrequencyChange><Frequency dt:dt="r8">2793160000</Frequency><Timestamp dt:dt="r8">3.39725759861729E+15</Timestamp><Current dt:dt="r8">0</Current><DateUtc dt:dt="string">2016-07-11T17:56:03Z</DateUtc></FrequencyChange></FrequencyChanges></Clock>\n	TMA Blocker Split Nostril Olfactometer_Pilot 2-30-1	74.912	1.0.0.1449	1	0		-999999	9	3803793	0	q	30797	3834590	-1190413399	2.0.10.242	2.0.10.242	07-11-2016	7/11/2016 5:56:03 PM	13:56:03	2.0.10.147	18	GREEN	NULL	NULL	BlockProcA	NULL	Test1	NULL	NULL	NULL	1	1	1	NULL	NULL	NULL	No	NULL	NULL	NULL	NULL	NULL	NULL	4	NULL	NULL	NULL	NULL	TMA	3	48	NULL	TrialProc	NULL	NULL	NULL	NULL	NULL	NULL	NULL	NULL	NULL	NULL	NULL	NULL	NULL	NULL	NULL	NULL	Nonenol	TrialList	NULL	NULL	NULL	NULL	NULL	NULL	7	1	4	NULL	NULL	NULL	3	NULL	1	NULL	NULL	NULL	NULL	NULL	NULL	NULL	1	1	-999999	13	2046318	0	1	1025	2047343	NULL	NULL	NULL	NULL	SongTrial	NULL	SoundList	NULL	NULL	13	1	4	NULL	NULL	NULL	NULL
TMA Blocker Split Nostril Olfactometer_Pilot 2	30	1	<?xml version="1.0"?>\n<Clock xmlns:dt="urn:schemas-microsoft-com:datatypes"><Description dt:dt="string">E-Prime Primary Realtime Clock</Description><StartTime><Timestamp dt:dt="int">0</Timestamp><DateUtc dt:dt="string">2016-07-11T17:56:03Z</DateUtc></StartTime><FrequencyChanges><FrequencyChange><Frequency dt:dt="r8">2793160000</Frequency><Timestamp dt:dt="r8">3.39725759861729E+15</Timestamp><Current dt:dt="r8">0</Current><DateUtc dt:dt="string">2016-07-11T17:56:03Z</DateUtc></FrequencyChange></FrequencyChanges></Clock>\n	TMA Blocker Split Nostril Olfactometer_Pilot 2-30-1	74.912	1.0.0.1449	1	0		-999999	9	3803793	0	q	30797	3834590	-1190413399	2.0.10.242	2.0.10.242	07-11-2016	7/11/2016 5:56:03 PM	13:56:03	2.0.10.147	18	GREEN	NULL	NULL	BlockProcA	NULL	Test1	NULL	NULL	NULL	1	1	1	NULL	NULL	NULL	No	NULL	NULL	NULL	NULL	NULL	NULL	5	NULL	NULL	NULL	NULL	TMA	3	24	NULL	TrialProc	NULL	NULL	NULL	NULL	NULL	NULL	NULL	NULL	NULL	NULL	NULL	NULL	NULL	NULL	NULL	NULL	Blank	TrialList	NULL	NULL	NULL	NULL	NULL	NULL	1	1	5	NULL	NULL	NULL	1	NULL	NULL	NULL	NULL	NULL	NULL	NULL	NULL	NULL	NULL	NULL	NULL	NULL	NULL	NULL	NULL	NULL	NULL	NULL	1	17	17	PrepareProc	NULL	Prepare	NULL	NULL	NULL	NULL	NULL	NULL	NULL	NULL	NULL
TMA Blocker Split Nostril Olfactometer_Pilot 2	30	1	<?xml version="1.0"?>\n<Clock xmlns:dt="urn:schemas-microsoft-com:datatypes"><Description dt:dt="string">E-Prime Primary Realtime Clock</Description><StartTime><Timestamp dt:dt="int">0</Timestamp><DateUtc dt:dt="string">2016-07-11T17:56:03Z</DateUtc></StartTime><FrequencyChanges><FrequencyChange><Frequency dt:dt="r8">2793160000</Frequency><Timestamp dt:dt="r8">3.39725759861729E+15</Timestamp><Current dt:dt="r8">0</Current><DateUtc dt:dt="string">2016-07-11T17:56:03Z</DateUtc></FrequencyChange></FrequencyChanges></Clock>\n	TMA Blocker Split Nostril Olfactometer_Pilot 2-30-1	74.912	1.0.0.1449	1	0		-999999	9	3803793	0	q	30797	3834590	-1190413399	2.0.10.242	2.0.10.242	07-11-2016	7/11/2016 5:56:03 PM	13:56:03	2.0.10.147	18	GREEN	NULL	NULL	BlockProcA	NULL	Test1	NULL	NULL	NULL	1	1	1	NULL	NULL	NULL	No	NULL	NULL	NULL	NULL	NULL	NULL	5	NULL	NULL	NULL	NULL	TMA	3	24	NULL	TrialProc	NULL	NULL	NULL	NULL	NULL	NULL	NULL	NULL	NULL	NULL	NULL	NULL	NULL	NULL	NULL	NULL	Blank	TrialList	NULL	NULL	NULL	NULL	NULL	NULL	1	1	5	NULL	NULL	NULL	2	NULL	NULL	1	5	5	NULL	Green	450	406	NULL	NULL	NULL	NULL	NULL	NULL	NULL	NULL	NULL	1	NULL	NULL	NULL	ExperimentProc	How intense is the odor?	Experiment	NULL	NULL	NULL	NULL	NULL	NULL	NULL	NULL	?
TMA Blocker Split Nostril Olfactometer_Pilot 2	30	1	<?xml version="1.0"?>\n<Clock xmlns:dt="urn:schemas-microsoft-com:datatypes"><Description dt:dt="string">E-Prime Primary Realtime Clock</Description><StartTime><Timestamp dt:dt="int">0</Timestamp><DateUtc dt:dt="string">2016-07-11T17:56:03Z</DateUtc></StartTime><FrequencyChanges><FrequencyChange><Frequency dt:dt="r8">2793160000</Frequency><Timestamp dt:dt="r8">3.39725759861729E+15</Timestamp><Current dt:dt="r8">0</Current><DateUtc dt:dt="string">2016-07-11T17:56:03Z</DateUtc></FrequencyChange></FrequencyChanges></Clock>\n	TMA Blocker Split Nostril Olfactometer_Pilot 2-30-1	74.912	1.0.0.1449	1	0		-999999	9	3803793	0	q	30797	3834590	-1190413399	2.0.10.242	2.0.10.242	07-11-2016	7/11/2016 5:56:03 PM	13:56:03	2.0.10.147	18	GREEN	NULL	NULL	BlockProcA	NULL	Test1	NULL	NULL	NULL	1	1	1	NULL	NULL	NULL	No	NULL	NULL	NULL	NULL	NULL	NULL	5	NULL	NULL	NULL	NULL	TMA	3	24	NULL	TrialProc	NULL	NULL	NULL	NULL	NULL	NULL	NULL	NULL	NULL	NULL	NULL	NULL	NULL	NULL	NULL	NULL	Blank	TrialList	NULL	NULL	NULL	NULL	NULL	NULL	1	1	5	NULL	NULL	NULL	3	NULL	1	NULL	NULL	NULL	NULL	NULL	NULL	NULL	1	1	-999999	13	2090050	0	1	388	2090438	NULL	NULL	NULL	NULL	SongTrial	NULL	SoundList	NULL	NULL	7	1	5	NULL	NULL	NULL	NULL
TMA Blocker Split Nostril Olfactometer_Pilot 2	30	1	<?xml version="1.0"?>\n<Clock xmlns:dt="urn:schemas-microsoft-com:datatypes"><Description dt:dt="string">E-Prime Primary Realtime Clock</Description><StartTime><Timestamp dt:dt="int">0</Timestamp><DateUtc dt:dt="string">2016-07-11T17:56:03Z</DateUtc></StartTime><FrequencyChanges><FrequencyChange><Frequency dt:dt="r8">2793160000</Frequency><Timestamp dt:dt="r8">3.39725759861729E+15</Timestamp><Current dt:dt="r8">0</Current><DateUtc dt:dt="string">2016-07-11T17:56:03Z</DateUtc></FrequencyChange></FrequencyChanges></Clock>\n	TMA Blocker Split Nostril Olfactometer_Pilot 2-30-1	74.912	1.0.0.1449	1	0		-999999	9	3803793	0	q	30797	3834590	-1190413399	2.0.10.242	2.0.10.242	07-11-2016	7/11/2016 5:56:03 PM	13:56:03	2.0.10.147	18	GREEN	NULL	NULL	BlockProcA	NULL	Test1	NULL	NULL	NULL	1	1	1	NULL	NULL	NULL	No	NULL	NULL	NULL	NULL	NULL	NULL	6	NULL	NULL	NULL	NULL	Blank	66	9	NULL	TrialProc	NULL	NULL	NULL	NULL	NULL	NULL	NULL	NULL	NULL	NULL	NULL	NULL	NULL	NULL	NULL	NULL	TMA	TrialList	NULL	NULL	NULL	NULL	NULL	NULL	2	1	6	NULL	NULL	NULL	1	NULL	NULL	NULL	NULL	NULL	NULL	NULL	NULL	NULL	NULL	NULL	NULL	NULL	NULL	NULL	NULL	NULL	NULL	NULL	1	18	18	PrepareProc	NULL	Prepare	NULL	NULL	NULL	NULL	NULL	NULL	NULL	NULL	NULL
TMA Blocker Split Nostril Olfactometer_Pilot 2	30	1	<?xml version="1.0"?>\n<Clock xmlns:dt="urn:schemas-microsoft-com:datatypes"><Description dt:dt="string">E-Prime Primary Realtime Clock</Description><StartTime><Timestamp dt:dt="int">0</Timestamp><DateUtc dt:dt="string">2016-07-11T17:56:03Z</DateUtc></StartTime><FrequencyChanges><FrequencyChange><Frequency dt:dt="r8">2793160000</Frequency><Timestamp dt:dt="r8">3.39725759861729E+15</Timestamp><Current dt:dt="r8">0</Current><DateUtc dt:dt="string">2016-07-11T17:56:03Z</DateUtc></FrequencyChange></FrequencyChanges></Clock>\n	TMA Blocker Split Nostril Olfactometer_Pilot 2-30-1	74.912	1.0.0.1449	1	0		-999999	9	3803793	0	q	30797	3834590	-1190413399	2.0.10.242	2.0.10.242	07-11-2016	7/11/2016 5:56:03 PM	13:56:03	2.0.10.147	18	GREEN	NULL	NULL	BlockProcA	NULL	Test1	NULL	NULL	NULL	1	1	1	NULL	NULL	NULL	No	NULL	NULL	NULL	NULL	NULL	NULL	6	NULL	NULL	NULL	NULL	Blank	66	9	NULL	TrialProc	NULL	NULL	NULL	NULL	NULL	NULL	NULL	NULL	NULL	NULL	NULL	NULL	NULL	NULL	NULL	NULL	TMA	TrialList	NULL	NULL	NULL	NULL	NULL	NULL	2	1	6	NULL	NULL	NULL	2	NULL	NULL	1	6	6	NULL	Green	323	496	NULL	NULL	NULL	NULL	NULL	NULL	NULL	NULL	NULL	1	NULL	NULL	NULL	ExperimentProc	How intense is the odor?	Experiment	NULL	NULL	NULL	NULL	NULL	NULL	NULL	NULL	?
TMA Blocker Split Nostril Olfactometer_Pilot 2	30	1	<?xml version="1.0"?>\n<Clock xmlns:dt="urn:schemas-microsoft-com:datatypes"><Description dt:dt="string">E-Prime Primary Realtime Clock</Description><StartTime><Timestamp dt:dt="int">0</Timestamp><DateUtc dt:dt="string">2016-07-11T17:56:03Z</DateUtc></StartTime><FrequencyChanges><FrequencyChange><Frequency dt:dt="r8">2793160000</Frequency><Timestamp dt:dt="r8">3.39725759861729E+15</Timestamp><Current dt:dt="r8">0</Current><DateUtc dt:dt="string">2016-07-11T17:56:03Z</DateUtc></FrequencyChange></FrequencyChanges></Clock>\n	TMA Blocker Split Nostril Olfactometer_Pilot 2-30-1	74.912	1.0.0.1449	1	0		-999999	9	3803793	0	q	30797	3834590	-1190413399	2.0.10.242	2.0.10.242	07-11-2016	7/11/2016 5:56:03 PM	13:56:03	2.0.10.147	18	GREEN	NULL	NULL	BlockProcA	NULL	Test1	NULL	NULL	NULL	1	1	1	NULL	NULL	NULL	No	NULL	NULL	NULL	NULL	NULL	NULL	6	NULL	NULL	NULL	NULL	Blank	66	9	NULL	TrialProc	NULL	NULL	NULL	NULL	NULL	NULL	NULL	NULL	NULL	NULL	NULL	NULL	NULL	NULL	NULL	NULL	TMA	TrialList	NULL	NULL	NULL	NULL	NULL	NULL	2	1	6	NULL	NULL	NULL	3	NULL	1	NULL	NULL	NULL	NULL	NULL	NULL	NULL	1	1	-999999	13	2132006	0	1	455	2132461	NULL	NULL	NULL	NULL	SongTrial	NULL	SoundList	NULL	NULL	10	1	6	NULL	NULL	NULL	NULL
TMA Blocker Split Nostril Olfactometer_Pilot 2	30	1	<?xml version="1.0"?>\n<Clock xmlns:dt="urn:schemas-microsoft-com:datatypes"><Description dt:dt="string">E-Prime Primary Realtime Clock</Description><StartTime><Timestamp dt:dt="int">0</Timestamp><DateUtc dt:dt="string">2016-07-11T17:56:03Z</DateUtc></StartTime><FrequencyChanges><FrequencyChange><Frequency dt:dt="r8">2793160000</Frequency><Timestamp dt:dt="r8">3.39725759861729E+15</Timestamp><Current dt:dt="r8">0</Current><DateUtc dt:dt="string">2016-07-11T17:56:03Z</DateUtc></FrequencyChange></FrequencyChanges></Clock>\n	TMA Blocker Split Nostril Olfactometer_Pilot 2-30-1	74.912	1.0.0.1449	1	0		-999999	9	3803793	0	q	30797	3834590	-1190413399	2.0.10.242	2.0.10.242	07-11-2016	7/11/2016 5:56:03 PM	13:56:03	2.0.10.147	18	GREEN	NULL	NULL	BlockProcA	NULL	Test1	NULL	NULL	NULL	1	1	1	NULL	NULL	NULL	No	NULL	NULL	NULL	NULL	NULL	NULL	7	NULL	NULL	NULL	NULL	TMA+Nonenol	9	24	NULL	TrialProc	NULL	NULL	NULL	NULL	NULL	NULL	NULL	NULL	NULL	NULL	NULL	NULL	NULL	NULL	NULL	NULL	Blank	TrialList	NULL	NULL	NULL	NULL	NULL	NULL	5	1	7	NULL	NULL	NULL	1	NULL	NULL	NULL	NULL	NULL	NULL	NULL	NULL	NULL	NULL	NULL	NULL	NULL	NULL	NULL	NULL	NULL	NULL	NULL	1	19	19	PrepareProc	NULL	Prepare	NULL	NULL	NULL	NULL	NULL	NULL	NULL	NULL	NULL
TMA Blocker Split Nostril Olfactometer_Pilot 2	30	1	<?xml version="1.0"?>\n<Clock xmlns:dt="urn:schemas-microsoft-com:datatypes"><Description dt:dt="string">E-Prime Primary Realtime Clock</Description><StartTime><Timestamp dt:dt="int">0</Timestamp><DateUtc dt:dt="string">2016-07-11T17:56:03Z</DateUtc></StartTime><FrequencyChanges><FrequencyChange><Frequency dt:dt="r8">2793160000</Frequency><Timestamp dt:dt="r8">3.39725759861729E+15</Timestamp><Current dt:dt="r8">0</Current><DateUtc dt:dt="string">2016-07-11T17:56:03Z</DateUtc></FrequencyChange></FrequencyChanges></Clock>\n	TMA Blocker Split Nostril Olfactometer_Pilot 2-30-1	74.912	1.0.0.1449	1	0		-999999	9	3803793	0	q	30797	3834590	-1190413399	2.0.10.242	2.0.10.242	07-11-2016	7/11/2016 5:56:03 PM	13:56:03	2.0.10.147	18	GREEN	NULL	NULL	BlockProcA	NULL	Test1	NULL	NULL	NULL	1	1	1	NULL	NULL	NULL	No	NULL	NULL	NULL	NULL	NULL	NULL	7	NULL	NULL	NULL	NULL	TMA+Nonenol	9	24	NULL	TrialProc	NULL	NULL	NULL	NULL	NULL	NULL	NULL	NULL	NULL	NULL	NULL	NULL	NULL	NULL	NULL	NULL	Blank	TrialList	NULL	NULL	NULL	NULL	NULL	NULL	5	1	7	NULL	NULL	NULL	2	NULL	NULL	1	7	7	NULL	Green	489	285	NULL	NULL	NULL	NULL	NULL	NULL	NULL	NULL	NULL	1	NULL	NULL	NULL	ExperimentProc	How intense is the odor?	Experiment	NULL	NULL	NULL	NULL	NULL	NULL	NULL	NULL	?
TMA Blocker Split Nostril Olfactometer_Pilot 2	30	1	<?xml version="1.0"?>\n<Clock xmlns:dt="urn:schemas-microsoft-com:datatypes"><Description dt:dt="string">E-Prime Primary Realtime Clock</Description><StartTime><Timestamp dt:dt="int">0</Timestamp><DateUtc dt:dt="string">2016-07-11T17:56:03Z</DateUtc></StartTime><FrequencyChanges><FrequencyChange><Frequency dt:dt="r8">2793160000</Frequency><Timestamp dt:dt="r8">3.39725759861729E+15</Timestamp><Current dt:dt="r8">0</Current><DateUtc dt:dt="string">2016-07-11T17:56:03Z</DateUtc></FrequencyChange></FrequencyChanges></Clock>\n	TMA Blocker Split Nostril Olfactometer_Pilot 2-30-1	74.912	1.0.0.1449	1	0		-999999	9	3803793	0	q	30797	3834590	-1190413399	2.0.10.242	2.0.10.242	07-11-2016	7/11/2016 5:56:03 PM	13:56:03	2.0.10.147	18	GREEN	NULL	NULL	BlockProcA	NULL	Test1	NULL	NULL	NULL	1	1	1	NULL	NULL	NULL	No	NULL	NULL	NULL	NULL	NULL	NULL	7	NULL	NULL	NULL	NULL	TMA+Nonenol	9	24	NULL	TrialProc	NULL	NULL	NULL	NULL	NULL	NULL	NULL	NULL	NULL	NULL	NULL	NULL	NULL	NULL	NULL	NULL	Blank	TrialList	NULL	NULL	NULL	NULL	NULL	NULL	5	1	7	NULL	NULL	NULL	3	NULL	2	NULL	NULL	NULL	NULL	NULL	NULL	NULL	1	2	-999999	13	2176044	0	2	599	2176643	NULL	NULL	NULL	NULL	SongTrial	NULL	SoundList	NULL	NULL	18	1	7	NULL	NULL	NULL	NULL
TMA Blocker Split Nostril Olfactometer_Pilot 2	30	1	<?xml version="1.0"?>\n<Clock xmlns:dt="urn:schemas-microsoft-com:datatypes"><Description dt:dt="string">E-Prime Primary Realtime Clock</Description><StartTime><Timestamp dt:dt="int">0</Timestamp><DateUtc dt:dt="string">2016-07-11T17:56:03Z</DateUtc></StartTime><FrequencyChanges><FrequencyChange><Frequency dt:dt="r8">2793160000</Frequency><Timestamp dt:dt="r8">3.39725759861729E+15</Timestamp><Current dt:dt="r8">0</Current><DateUtc dt:dt="string">2016-07-11T17:56:03Z</DateUtc></FrequencyChange></FrequencyChanges></Clock>\n	TMA Blocker Split Nostril Olfactometer_Pilot 2-30-1	74.912	1.0.0.1449	1	0		-999999	9	3803793	0	q	30797	3834590	-1190413399	2.0.10.242	2.0.10.242	07-11-2016	7/11/2016 5:56:03 PM	13:56:03	2.0.10.147	18	GREEN	NULL	NULL	BlockProcA	NULL	Test1	NULL	NULL	NULL	1	1	1	NULL	NULL	NULL	No	NULL	NULL	NULL	NULL	NULL	NULL	8	NULL	NULL	NULL	NULL	Nonenol	72	9	NULL	TrialProc	NULL	NULL	NULL	NULL	NULL	NULL	NULL	NULL	NULL	NULL	NULL	NULL	NULL	NULL	NULL	NULL	TMA	TrialList	NULL	NULL	NULL	NULL	NULL	NULL	8	1	8	NULL	NULL	NULL	1	NULL	NULL	NULL	NULL	NULL	NULL	NULL	NULL	NULL	NULL	NULL	NULL	NULL	NULL	NULL	NULL	NULL	NULL	NULL	1	20	20	PrepareProc	NULL	Prepare	NULL	NULL	NULL	NULL	NULL	NULL	NULL	NULL	NULL
TMA Blocker Split Nostril Olfactometer_Pilot 2	30	1	<?xml version="1.0"?>\n<Clock xmlns:dt="urn:schemas-microsoft-com:datatypes"><Description dt:dt="string">E-Prime Primary Realtime Clock</Description><StartTime><Timestamp dt:dt="int">0</Timestamp><DateUtc dt:dt="string">2016-07-11T17:56:03Z</DateUtc></StartTime><FrequencyChanges><FrequencyChange><Frequency dt:dt="r8">2793160000</Frequency><Timestamp dt:dt="r8">3.39725759861729E+15</Timestamp><Current dt:dt="r8">0</Current><DateUtc dt:dt="string">2016-07-11T17:56:03Z</DateUtc></FrequencyChange></FrequencyChanges></Clock>\n	TMA Blocker Split Nostril Olfactometer_Pilot 2-30-1	74.912	1.0.0.1449	1	0		-999999	9	3803793	0	q	30797	3834590	-1190413399	2.0.10.242	2.0.10.242	07-11-2016	7/11/2016 5:56:03 PM	13:56:03	2.0.10.147	18	GREEN	NULL	NULL	BlockProcA	NULL	Test1	NULL	NULL	NULL	1	1	1	NULL	NULL	NULL	No	NULL	NULL	NULL	NULL	NULL	NULL	8	NULL	NULL	NULL	NULL	Nonenol	72	9	NULL	TrialProc	NULL	NULL	NULL	NULL	NULL	NULL	NULL	NULL	NULL	NULL	NULL	NULL	NULL	NULL	NULL	NULL	TMA	TrialList	NULL	NULL	NULL	NULL	NULL	NULL	8	1	8	NULL	NULL	NULL	2	NULL	NULL	1	8	8	NULL	Green	319	476	NULL	NULL	NULL	NULL	NULL	NULL	NULL	NULL	NULL	1	NULL	NULL	NULL	ExperimentProc	How intense is the odor?	Experiment	NULL	NULL	NULL	NULL	NULL	NULL	NULL	NULL	?
TMA Blocker Split Nostril Olfactometer_Pilot 2	30	1	<?xml version="1.0"?>\n<Clock xmlns:dt="urn:schemas-microsoft-com:datatypes"><Description dt:dt="string">E-Prime Primary Realtime Clock</Description><StartTime><Timestamp dt:dt="int">0</Timestamp><DateUtc dt:dt="string">2016-07-11T17:56:03Z</DateUtc></StartTime><FrequencyChanges><FrequencyChange><Frequency dt:dt="r8">2793160000</Frequency><Timestamp dt:dt="r8">3.39725759861729E+15</Timestamp><Current dt:dt="r8">0</Current><DateUtc dt:dt="string">2016-07-11T17:56:03Z</DateUtc></FrequencyChange></FrequencyChanges></Clock>\n	TMA Blocker Split Nostril Olfactometer_Pilot 2-30-1	74.912	1.0.0.1449	1	0		-999999	9	3803793	0	q	30797	3834590	-1190413399	2.0.10.242	2.0.10.242	07-11-2016	7/11/2016 5:56:03 PM	13:56:03	2.0.10.147	18	GREEN	NULL	NULL	BlockProcA	NULL	Test1	NULL	NULL	NULL	1	1	1	NULL	NULL	NULL	No	NULL	NULL	NULL	NULL	NULL	NULL	8	NULL	NULL	NULL	NULL	Nonenol	72	9	NULL	TrialProc	NULL	NULL	NULL	NULL	NULL	NULL	NULL	NULL	NULL	NULL	NULL	NULL	NULL	NULL	NULL	NULL	TMA	TrialList	NULL	NULL	NULL	NULL	NULL	NULL	8	1	8	NULL	NULL	NULL	3	NULL	2	NULL	NULL	NULL	NULL	NULL	NULL	NULL	0	2	-999999	13	2220537	0	1	345	2220882	NULL	NULL	NULL	NULL	SongTrial	NULL	SoundList	NULL	NULL	8	1	8	NULL	NULL	NULL	NULL
TMA Blocker Split Nostril Olfactometer_Pilot 2	30	1	<?xml version="1.0"?>\n<Clock xmlns:dt="urn:schemas-microsoft-com:datatypes"><Description dt:dt="string">E-Prime Primary Realtime Clock</Description><StartTime><Timestamp dt:dt="int">0</Timestamp><DateUtc dt:dt="string">2016-07-11T17:56:03Z</DateUtc></StartTime><FrequencyChanges><FrequencyChange><Frequency dt:dt="r8">2793160000</Frequency><Timestamp dt:dt="r8">3.39725759861729E+15</Timestamp><Current dt:dt="r8">0</Current><DateUtc dt:dt="string">2016-07-11T17:56:03Z</DateUtc></FrequencyChange></FrequencyChanges></Clock>\n	TMA Blocker Split Nostril Olfactometer_Pilot 2-30-1	74.912	1.0.0.1449	1	0		-999999	9	3803793	0	q	30797	3834590	-1190413399	2.0.10.242	2.0.10.242	07-11-2016	7/11/2016 5:56:03 PM	13:56:03	2.0.10.147	18	GREEN	NULL	NULL	BlockProcA	NULL	Test1	NULL	NULL	NULL	1	1	1	NULL	NULL	NULL	No	NULL	NULL	NULL	NULL	NULL	NULL	9	NULL	NULL	NULL	NULL	Nonenol	72	24	NULL	TrialProc	NULL	NULL	NULL	NULL	NULL	NULL	NULL	NULL	NULL	NULL	NULL	NULL	NULL	NULL	NULL	NULL	Blank	TrialList	NULL	NULL	NULL	NULL	NULL	NULL	3	1	9	NULL	NULL	NULL	1	NULL	NULL	NULL	NULL	NULL	NULL	NULL	NULL	NULL	NULL	NULL	NULL	NULL	NULL	NULL	NULL	NULL	NULL	NULL	1	21	21	PrepareProc	NULL	Prepare	NULL	NULL	NULL	NULL	NULL	NULL	NULL	NULL	NULL
TMA Blocker Split Nostril Olfactometer_Pilot 2	30	1	<?xml version="1.0"?>\n<Clock xmlns:dt="urn:schemas-microsoft-com:datatypes"><Description dt:dt="string">E-Prime Primary Realtime Clock</Description><StartTime><Timestamp dt:dt="int">0</Timestamp><DateUtc dt:dt="string">2016-07-11T17:56:03Z</DateUtc></StartTime><FrequencyChanges><FrequencyChange><Frequency dt:dt="r8">2793160000</Frequency><Timestamp dt:dt="r8">3.39725759861729E+15</Timestamp><Current dt:dt="r8">0</Current><DateUtc dt:dt="string">2016-07-11T17:56:03Z</DateUtc></FrequencyChange></FrequencyChanges></Clock>\n	TMA Blocker Split Nostril Olfactometer_Pilot 2-30-1	74.912	1.0.0.1449	1	0		-999999	9	3803793	0	q	30797	3834590	-1190413399	2.0.10.242	2.0.10.242	07-11-2016	7/11/2016 5:56:03 PM	13:56:03	2.0.10.147	18	GREEN	NULL	NULL	BlockProcA	NULL	Test1	NULL	NULL	NULL	1	1	1	NULL	NULL	NULL	No	NULL	NULL	NULL	NULL	NULL	NULL	9	NULL	NULL	NULL	NULL	Nonenol	72	24	NULL	TrialProc	NULL	NULL	NULL	NULL	NULL	NULL	NULL	NULL	NULL	NULL	NULL	NULL	NULL	NULL	NULL	NULL	Blank	TrialList	NULL	NULL	NULL	NULL	NULL	NULL	3	1	9	NULL	NULL	NULL	2	NULL	NULL	1	9	9	NULL	Green	494	494	NULL	NULL	NULL	NULL	NULL	NULL	NULL	NULL	NULL	1	NULL	NULL	NULL	ExperimentProc	How intense is the odor?	Experiment	NULL	NULL	NULL	NULL	NULL	NULL	NULL	NULL	?
TMA Blocker Split Nostril Olfactometer_Pilot 2	30	1	<?xml version="1.0"?>\n<Clock xmlns:dt="urn:schemas-microsoft-com:datatypes"><Description dt:dt="string">E-Prime Primary Realtime Clock</Description><StartTime><Timestamp dt:dt="int">0</Timestamp><DateUtc dt:dt="string">2016-07-11T17:56:03Z</DateUtc></StartTime><FrequencyChanges><FrequencyChange><Frequency dt:dt="r8">2793160000</Frequency><Timestamp dt:dt="r8">3.39725759861729E+15</Timestamp><Current dt:dt="r8">0</Current><DateUtc dt:dt="string">2016-07-11T17:56:03Z</DateUtc></FrequencyChange></FrequencyChanges></Clock>\n	TMA Blocker Split Nostril Olfactometer_Pilot 2-30-1	74.912	1.0.0.1449	1	0		-999999	9	3803793	0	q	30797	3834590	-1190413399	2.0.10.242	2.0.10.242	07-11-2016	7/11/2016 5:56:03 PM	13:56:03	2.0.10.147	18	GREEN	NULL	NULL	BlockProcA	NULL	Test1	NULL	NULL	NULL	1	1	1	NULL	NULL	NULL	No	NULL	NULL	NULL	NULL	NULL	NULL	9	NULL	NULL	NULL	NULL	Nonenol	72	24	NULL	TrialProc	NULL	NULL	NULL	NULL	NULL	NULL	NULL	NULL	NULL	NULL	NULL	NULL	NULL	NULL	NULL	NULL	Blank	TrialList	NULL	NULL	NULL	NULL	NULL	NULL	3	1	9	NULL	NULL	NULL	3	NULL	1	NULL	NULL	NULL	NULL	NULL	NULL	NULL	0	1	-999999	13	2264642	0	2	967	2265609	NULL	NULL	NULL	NULL	SongTrial	NULL	SoundList	NULL	NULL	19	1	9	NULL	NULL	NULL	NULL
TMA Blocker Split Nostril Olfactometer_Pilot 2	30	1	<?xml version="1.0"?>\n<Clock xmlns:dt="urn:schemas-microsoft-com:datatypes"><Description dt:dt="string">E-Prime Primary Realtime Clock</Description><StartTime><Timestamp dt:dt="int">0</Timestamp><DateUtc dt:dt="string">2016-07-11T17:56:03Z</DateUtc></StartTime><FrequencyChanges><FrequencyChange><Frequency dt:dt="r8">2793160000</Frequency><Timestamp dt:dt="r8">3.39725759861729E+15</Timestamp><Current dt:dt="r8">0</Current><DateUtc dt:dt="string">2016-07-11T17:56:03Z</DateUtc></FrequencyChange></FrequencyChanges></Clock>\n	TMA Blocker Split Nostril Olfactometer_Pilot 2-30-1	74.912	1.0.0.1449	1	0		-999999	9	3803793	0	q	30797	3834590	-1190413399	2.0.10.242	2.0.10.242	07-11-2016	7/11/2016 5:56:03 PM	13:56:03	2.0.10.147	18	GREEN	NULL	NULL	BlockProcA	NULL	Test1	NULL	NULL	NULL	1	1	1	NULL	NULL	NULL	No	NULL	NULL	NULL	NULL	NULL	NULL	10	NULL	NULL	NULL	NULL	Blank	66	9	NULL	TrialProc	NULL	NULL	NULL	NULL	NULL	NULL	NULL	NULL	NULL	NULL	NULL	NULL	NULL	NULL	NULL	NULL	TMA	TrialList	NULL	NULL	NULL	NULL	NULL	NULL	2	2	10	NULL	NULL	NULL	1	NULL	NULL	NULL	NULL	NULL	NULL	NULL	NULL	NULL	NULL	NULL	NULL	NULL	NULL	NULL	NULL	NULL	NULL	NULL	1	22	22	PrepareProc	NULL	Prepare	NULL	NULL	NULL	NULL	NULL	NULL	NULL	NULL	NULL
TMA Blocker Split Nostril Olfactometer_Pilot 2	30	1	<?xml version="1.0"?>\n<Clock xmlns:dt="urn:schemas-microsoft-com:datatypes"><Description dt:dt="string">E-Prime Primary Realtime Clock</Description><StartTime><Timestamp dt:dt="int">0</Timestamp><DateUtc dt:dt="string">2016-07-11T17:56:03Z</DateUtc></StartTime><FrequencyChanges><FrequencyChange><Frequency dt:dt="r8">2793160000</Frequency><Timestamp dt:dt="r8">3.39725759861729E+15</Timestamp><Current dt:dt="r8">0</Current><DateUtc dt:dt="string">2016-07-11T17:56:03Z</DateUtc></FrequencyChange></FrequencyChanges></Clock>\n	TMA Blocker Split Nostril Olfactometer_Pilot 2-30-1	74.912	1.0.0.1449	1	0		-999999	9	3803793	0	q	30797	3834590	-1190413399	2.0.10.242	2.0.10.242	07-11-2016	7/11/2016 5:56:03 PM	13:56:03	2.0.10.147	18	GREEN	NULL	NULL	BlockProcA	NULL	Test1	NULL	NULL	NULL	1	1	1	NULL	NULL	NULL	No	NULL	NULL	NULL	NULL	NULL	NULL	10	NULL	NULL	NULL	NULL	Blank	66	9	NULL	TrialProc	NULL	NULL	NULL	NULL	NULL	NULL	NULL	NULL	NULL	NULL	NULL	NULL	NULL	NULL	NULL	NULL	TMA	TrialList	NULL	NULL	NULL	NULL	NULL	NULL	2	2	10	NULL	NULL	NULL	2	NULL	NULL	1	10	10	NULL	Green	495	322	NULL	NULL	NULL	NULL	NULL	NULL	NULL	NULL	NULL	1	NULL	NULL	NULL	ExperimentProc	How intense is the odor?	Experiment	NULL	NULL	NULL	NULL	NULL	NULL	NULL	NULL	?
TMA Blocker Split Nostril Olfactometer_Pilot 2	30	1	<?xml version="1.0"?>\n<Clock xmlns:dt="urn:schemas-microsoft-com:datatypes"><Description dt:dt="string">E-Prime Primary Realtime Clock</Description><StartTime><Timestamp dt:dt="int">0</Timestamp><DateUtc dt:dt="string">2016-07-11T17:56:03Z</DateUtc></StartTime><FrequencyChanges><FrequencyChange><Frequency dt:dt="r8">2793160000</Frequency><Timestamp dt:dt="r8">3.39725759861729E+15</Timestamp><Current dt:dt="r8">0</Current><DateUtc dt:dt="string">2016-07-11T17:56:03Z</DateUtc></FrequencyChange></FrequencyChanges></Clock>\n	TMA Blocker Split Nostril Olfactometer_Pilot 2-30-1	74.912	1.0.0.1449	1	0		-999999	9	3803793	0	q	30797	3834590	-1190413399	2.0.10.242	2.0.10.242	07-11-2016	7/11/2016 5:56:03 PM	13:56:03	2.0.10.147	18	GREEN	NULL	NULL	BlockProcA	NULL	Test1	NULL	NULL	NULL	1	1	1	NULL	NULL	NULL	No	NULL	NULL	NULL	NULL	NULL	NULL	10	NULL	NULL	NULL	NULL	Blank	66	9	NULL	TrialProc	NULL	NULL	NULL	NULL	NULL	NULL	NULL	NULL	NULL	NULL	NULL	NULL	NULL	NULL	NULL	NULL	TMA	TrialList	NULL	NULL	NULL	NULL	NULL	NULL	2	2	10	NULL	NULL	NULL	3	NULL	2	NULL	NULL	NULL	NULL	NULL	NULL	NULL	0	2	-999999	13	2308227	0	1	548	2308775	NULL	NULL	NULL	NULL	SongTrial	NULL	SoundList	NULL	NULL	2	1	10	NULL	NULL	NULL	NULL
TMA Blocker Split Nostril Olfactometer_Pilot 2	30	1	<?xml version="1.0"?>\n<Clock xmlns:dt="urn:schemas-microsoft-com:datatypes"><Description dt:dt="string">E-Prime Primary Realtime Clock</Description><StartTime><Timestamp dt:dt="int">0</Timestamp><DateUtc dt:dt="string">2016-07-11T17:56:03Z</DateUtc></StartTime><FrequencyChanges><FrequencyChange><Frequency dt:dt="r8">2793160000</Frequency><Timestamp dt:dt="r8">3.39725759861729E+15</Timestamp><Current dt:dt="r8">0</Current><DateUtc dt:dt="string">2016-07-11T17:56:03Z</DateUtc></FrequencyChange></FrequencyChanges></Clock>\n	TMA Blocker Split Nostril Olfactometer_Pilot 2-30-1	74.912	1.0.0.1449	1	0		-999999	9	3803793	0	q	30797	3834590	-1190413399	2.0.10.242	2.0.10.242	07-11-2016	7/11/2016 5:56:03 PM	13:56:03	2.0.10.147	18	GREEN	NULL	NULL	BlockProcA	NULL	Test1	NULL	NULL	NULL	1	1	1	NULL	NULL	NULL	No	NULL	NULL	NULL	NULL	NULL	NULL	11	NULL	NULL	NULL	NULL	Nonenol	72	24	NULL	TrialProc	NULL	NULL	NULL	NULL	NULL	NULL	NULL	NULL	NULL	NULL	NULL	NULL	NULL	NULL	NULL	NULL	Blank	TrialList	NULL	NULL	NULL	NULL	NULL	NULL	3	2	11	NULL	NULL	NULL	1	NULL	NULL	NULL	NULL	NULL	NULL	NULL	NULL	NULL	NULL	NULL	NULL	NULL	NULL	NULL	NULL	NULL	NULL	NULL	1	23	23	PrepareProc	NULL	Prepare	NULL	NULL	NULL	NULL	NULL	NULL	NULL	NULL	NULL
TMA Blocker Split Nostril Olfactometer_Pilot 2	30	1	<?xml version="1.0"?>\n<Clock xmlns:dt="urn:schemas-microsoft-com:datatypes"><Description dt:dt="string">E-Prime Primary Realtime Clock</Description><StartTime><Timestamp dt:dt="int">0</Timestamp><DateUtc dt:dt="string">2016-07-11T17:56:03Z</DateUtc></StartTime><FrequencyChanges><FrequencyChange><Frequency dt:dt="r8">2793160000</Frequency><Timestamp dt:dt="r8">3.39725759861729E+15</Timestamp><Current dt:dt="r8">0</Current><DateUtc dt:dt="string">2016-07-11T17:56:03Z</DateUtc></FrequencyChange></FrequencyChanges></Clock>\n	TMA Blocker Split Nostril Olfactometer_Pilot 2-30-1	74.912	1.0.0.1449	1	0		-999999	9	3803793	0	q	30797	3834590	-1190413399	2.0.10.242	2.0.10.242	07-11-2016	7/11/2016 5:56:03 PM	13:56:03	2.0.10.147	18	GREEN	NULL	NULL	BlockProcA	NULL	Test1	NULL	NULL	NULL	1	1	1	NULL	NULL	NULL	No	NULL	NULL	NULL	NULL	NULL	NULL	11	NULL	NULL	NULL	NULL	Nonenol	72	24	NULL	TrialProc	NULL	NULL	NULL	NULL	NULL	NULL	NULL	NULL	NULL	NULL	NULL	NULL	NULL	NULL	NULL	NULL	Blank	TrialList	NULL	NULL	NULL	NULL	NULL	NULL	3	2	11	NULL	NULL	NULL	2	NULL	NULL	1	11	11	NULL	Green	402	562	NULL	NULL	NULL	NULL	NULL	NULL	NULL	NULL	NULL	1	NULL	NULL	NULL	ExperimentProc	How intense is the odor?	Experiment	NULL	NULL	NULL	NULL	NULL	NULL	NULL	NULL	?
TMA Blocker Split Nostril Olfactometer_Pilot 2	30	1	<?xml version="1.0"?>\n<Clock xmlns:dt="urn:schemas-microsoft-com:datatypes"><Description dt:dt="string">E-Prime Primary Realtime Clock</Description><StartTime><Timestamp dt:dt="int">0</Timestamp><DateUtc dt:dt="string">2016-07-11T17:56:03Z</DateUtc></StartTime><FrequencyChanges><FrequencyChange><Frequency dt:dt="r8">2793160000</Frequency><Timestamp dt:dt="r8">3.39725759861729E+15</Timestamp><Current dt:dt="r8">0</Current><DateUtc dt:dt="string">2016-07-11T17:56:03Z</DateUtc></FrequencyChange></FrequencyChanges></Clock>\n	TMA Blocker Split Nostril Olfactometer_Pilot 2-30-1	74.912	1.0.0.1449	1	0		-999999	9	3803793	0	q	30797	3834590	-1190413399	2.0.10.242	2.0.10.242	07-11-2016	7/11/2016 5:56:03 PM	13:56:03	2.0.10.147	18	GREEN	NULL	NULL	BlockProcA	NULL	Test1	NULL	NULL	NULL	1	1	1	NULL	NULL	NULL	No	NULL	NULL	NULL	NULL	NULL	NULL	11	NULL	NULL	NULL	NULL	Nonenol	72	24	NULL	TrialProc	NULL	NULL	NULL	NULL	NULL	NULL	NULL	NULL	NULL	NULL	NULL	NULL	NULL	NULL	NULL	NULL	Blank	TrialList	NULL	NULL	NULL	NULL	NULL	NULL	3	2	11	NULL	NULL	NULL	3	NULL	2	NULL	NULL	NULL	NULL	NULL	NULL	NULL	1	2	-999999	13	2352066	0	2	1444	2353510	NULL	NULL	NULL	NULL	SongTrial	NULL	SoundList	NULL	NULL	17	1	11	NULL	NULL	NULL	NULL
TMA Blocker Split Nostril Olfactometer_Pilot 2	30	1	<?xml version="1.0"?>\n<Clock xmlns:dt="urn:schemas-microsoft-com:datatypes"><Description dt:dt="string">E-Prime Primary Realtime Clock</Description><StartTime><Timestamp dt:dt="int">0</Timestamp><DateUtc dt:dt="string">2016-07-11T17:56:03Z</DateUtc></StartTime><FrequencyChanges><FrequencyChange><Frequency dt:dt="r8">2793160000</Frequency><Timestamp dt:dt="r8">3.39725759861729E+15</Timestamp><Current dt:dt="r8">0</Current><DateUtc dt:dt="string">2016-07-11T17:56:03Z</DateUtc></FrequencyChange></FrequencyChanges></Clock>\n	TMA Blocker Split Nostril Olfactometer_Pilot 2-30-1	74.912	1.0.0.1449	1	0		-999999	9	3803793	0	q	30797	3834590	-1190413399	2.0.10.242	2.0.10.242	07-11-2016	7/11/2016 5:56:03 PM	13:56:03	2.0.10.147	18	GREEN	NULL	NULL	BlockProcA	NULL	Test1	NULL	NULL	NULL	1	1	1	NULL	NULL	NULL	No	NULL	NULL	NULL	NULL	NULL	NULL	12	NULL	NULL	NULL	NULL	TMA+Nonenol	9	24	NULL	TrialProc	NULL	NULL	NULL	NULL	NULL	NULL	NULL	NULL	NULL	NULL	NULL	NULL	NULL	NULL	NULL	NULL	Blank	TrialList	NULL	NULL	NULL	NULL	NULL	NULL	5	2	12	NULL	NULL	NULL	1	NULL	NULL	NULL	NULL	NULL	NULL	NULL	NULL	NULL	NULL	NULL	NULL	NULL	NULL	NULL	NULL	NULL	NULL	NULL	1	24	24	PrepareProc	NULL	Prepare	NULL	NULL	NULL	NULL	NULL	NULL	NULL	NULL	NULL
TMA Blocker Split Nostril Olfactometer_Pilot 2	30	1	<?xml version="1.0"?>\n<Clock xmlns:dt="urn:schemas-microsoft-com:datatypes"><Description dt:dt="string">E-Prime Primary Realtime Clock</Description><StartTime><Timestamp dt:dt="int">0</Timestamp><DateUtc dt:dt="string">2016-07-11T17:56:03Z</DateUtc></StartTime><FrequencyChanges><FrequencyChange><Frequency dt:dt="r8">2793160000</Frequency><Timestamp dt:dt="r8">3.39725759861729E+15</Timestamp><Current dt:dt="r8">0</Current><DateUtc dt:dt="string">2016-07-11T17:56:03Z</DateUtc></FrequencyChange></FrequencyChanges></Clock>\n	TMA Blocker Split Nostril Olfactometer_Pilot 2-30-1	74.912	1.0.0.1449	1	0		-999999	9	3803793	0	q	30797	3834590	-1190413399	2.0.10.242	2.0.10.242	07-11-2016	7/11/2016 5:56:03 PM	13:56:03	2.0.10.147	18	GREEN	NULL	NULL	BlockProcA	NULL	Test1	NULL	NULL	NULL	1	1	1	NULL	NULL	NULL	No	NULL	NULL	NULL	NULL	NULL	NULL	12	NULL	NULL	NULL	NULL	TMA+Nonenol	9	24	NULL	TrialProc	NULL	NULL	NULL	NULL	NULL	NULL	NULL	NULL	NULL	NULL	NULL	NULL	NULL	NULL	NULL	NULL	Blank	TrialList	NULL	NULL	NULL	NULL	NULL	NULL	5	2	12	NULL	NULL	NULL	2	NULL	NULL	1	12	12	NULL	Green	496	492	NULL	NULL	NULL	NULL	NULL	NULL	NULL	NULL	NULL	1	NULL	NULL	NULL	ExperimentProc	How intense is the odor?	Experiment	NULL	NULL	NULL	NULL	NULL	NULL	NULL	NULL	?
TMA Blocker Split Nostril Olfactometer_Pilot 2	30	1	<?xml version="1.0"?>\n<Clock xmlns:dt="urn:schemas-microsoft-com:datatypes"><Description dt:dt="string">E-Prime Primary Realtime Clock</Description><StartTime><Timestamp dt:dt="int">0</Timestamp><DateUtc dt:dt="string">2016-07-11T17:56:03Z</DateUtc></StartTime><FrequencyChanges><FrequencyChange><Frequency dt:dt="r8">2793160000</Frequency><Timestamp dt:dt="r8">3.39725759861729E+15</Timestamp><Current dt:dt="r8">0</Current><DateUtc dt:dt="string">2016-07-11T17:56:03Z</DateUtc></FrequencyChange></FrequencyChanges></Clock>\n	TMA Blocker Split Nostril Olfactometer_Pilot 2-30-1	74.912	1.0.0.1449	1	0		-999999	9	3803793	0	q	30797	3834590	-1190413399	2.0.10.242	2.0.10.242	07-11-2016	7/11/2016 5:56:03 PM	13:56:03	2.0.10.147	18	GREEN	NULL	NULL	BlockProcA	NULL	Test1	NULL	NULL	NULL	1	1	1	NULL	NULL	NULL	No	NULL	NULL	NULL	NULL	NULL	NULL	12	NULL	NULL	NULL	NULL	TMA+Nonenol	9	24	NULL	TrialProc	NULL	NULL	NULL	NULL	NULL	NULL	NULL	NULL	NULL	NULL	NULL	NULL	NULL	NULL	NULL	NULL	Blank	TrialList	NULL	NULL	NULL	NULL	NULL	NULL	5	2	12	NULL	NULL	NULL	3	NULL	1	NULL	NULL	NULL	NULL	NULL	NULL	NULL	1	1	-999999	13	2395624	0	1	884	2396508	NULL	NULL	NULL	NULL	SongTrial	NULL	SoundList	NULL	NULL	1	1	12	NULL	NULL	NULL	NULL
TMA Blocker Split Nostril Olfactometer_Pilot 2	30	1	<?xml version="1.0"?>\n<Clock xmlns:dt="urn:schemas-microsoft-com:datatypes"><Description dt:dt="string">E-Prime Primary Realtime Clock</Description><StartTime><Timestamp dt:dt="int">0</Timestamp><DateUtc dt:dt="string">2016-07-11T17:56:03Z</DateUtc></StartTime><FrequencyChanges><FrequencyChange><Frequency dt:dt="r8">2793160000</Frequency><Timestamp dt:dt="r8">3.39725759861729E+15</Timestamp><Current dt:dt="r8">0</Current><DateUtc dt:dt="string">2016-07-11T17:56:03Z</DateUtc></FrequencyChange></FrequencyChanges></Clock>\n	TMA Blocker Split Nostril Olfactometer_Pilot 2-30-1	74.912	1.0.0.1449	1	0		-999999	9	3803793	0	q	30797	3834590	-1190413399	2.0.10.242	2.0.10.242	07-11-2016	7/11/2016 5:56:03 PM	13:56:03	2.0.10.147	18	GREEN	NULL	NULL	BlockProcA	NULL	Test1	NULL	NULL	NULL	1	1	1	NULL	NULL	NULL	No	NULL	NULL	NULL	NULL	NULL	NULL	13	NULL	NULL	NULL	NULL	TMA	3	48	NULL	TrialProc	NULL	NULL	NULL	NULL	NULL	NULL	NULL	NULL	NULL	NULL	NULL	NULL	NULL	NULL	NULL	NULL	Nonenol	TrialList	NULL	NULL	NULL	NULL	NULL	NULL	7	2	13	NULL	NULL	NULL	1	NULL	NULL	NULL	NULL	NULL	NULL	NULL	NULL	NULL	NULL	NULL	NULL	NULL	NULL	NULL	NULL	NULL	NULL	NULL	1	25	25	PrepareProc	NULL	Prepare	NULL	NULL	NULL	NULL	NULL	NULL	NULL	NULL	NULL
TMA Blocker Split Nostril Olfactometer_Pilot 2	30	1	<?xml version="1.0"?>\n<Clock xmlns:dt="urn:schemas-microsoft-com:datatypes"><Description dt:dt="string">E-Prime Primary Realtime Clock</Description><StartTime><Timestamp dt:dt="int">0</Timestamp><DateUtc dt:dt="string">2016-07-11T17:56:03Z</DateUtc></StartTime><FrequencyChanges><FrequencyChange><Frequency dt:dt="r8">2793160000</Frequency><Timestamp dt:dt="r8">3.39725759861729E+15</Timestamp><Current dt:dt="r8">0</Current><DateUtc dt:dt="string">2016-07-11T17:56:03Z</DateUtc></FrequencyChange></FrequencyChanges></Clock>\n	TMA Blocker Split Nostril Olfactometer_Pilot 2-30-1	74.912	1.0.0.1449	1	0		-999999	9	3803793	0	q	30797	3834590	-1190413399	2.0.10.242	2.0.10.242	07-11-2016	7/11/2016 5:56:03 PM	13:56:03	2.0.10.147	18	GREEN	NULL	NULL	BlockProcA	NULL	Test1	NULL	NULL	NULL	1	1	1	NULL	NULL	NULL	No	NULL	NULL	NULL	NULL	NULL	NULL	13	NULL	NULL	NULL	NULL	TMA	3	48	NULL	TrialProc	NULL	NULL	NULL	NULL	NULL	NULL	NULL	NULL	NULL	NULL	NULL	NULL	NULL	NULL	NULL	NULL	Nonenol	TrialList	NULL	NULL	NULL	NULL	NULL	NULL	7	2	13	NULL	NULL	NULL	2	NULL	NULL	1	13	13	NULL	Green	345	322	NULL	NULL	NULL	NULL	NULL	NULL	NULL	NULL	NULL	1	NULL	NULL	NULL	ExperimentProc	How intense is the odor?	Experiment	NULL	NULL	NULL	NULL	NULL	NULL	NULL	NULL	?
TMA Blocker Split Nostril Olfactometer_Pilot 2	30	1	<?xml version="1.0"?>\n<Clock xmlns:dt="urn:schemas-microsoft-com:datatypes"><Description dt:dt="string">E-Prime Primary Realtime Clock</Description><StartTime><Timestamp dt:dt="int">0</Timestamp><DateUtc dt:dt="string">2016-07-11T17:56:03Z</DateUtc></StartTime><FrequencyChanges><FrequencyChange><Frequency dt:dt="r8">2793160000</Frequency><Timestamp dt:dt="r8">3.39725759861729E+15</Timestamp><Current dt:dt="r8">0</Current><DateUtc dt:dt="string">2016-07-11T17:56:03Z</DateUtc></FrequencyChange></FrequencyChanges></Clock>\n	TMA Blocker Split Nostril Olfactometer_Pilot 2-30-1	74.912	1.0.0.1449	1	0		-999999	9	3803793	0	q	30797	3834590	-1190413399	2.0.10.242	2.0.10.242	07-11-2016	7/11/2016 5:56:03 PM	13:56:03	2.0.10.147	18	GREEN	NULL	NULL	BlockProcA	NULL	Test1	NULL	NULL	NULL	1	1	1	NULL	NULL	NULL	No	NULL	NULL	NULL	NULL	NULL	NULL	13	NULL	NULL	NULL	NULL	TMA	3	48	NULL	TrialProc	NULL	NULL	NULL	NULL	NULL	NULL	NULL	NULL	NULL	NULL	NULL	NULL	NULL	NULL	NULL	NULL	Nonenol	TrialList	NULL	NULL	NULL	NULL	NULL	NULL	7	2	13	NULL	NULL	NULL	3	NULL	2	NULL	NULL	NULL	NULL	NULL	NULL	NULL	1	2	-999999	13	2442012	0	2	335	2442347	NULL	NULL	NULL	NULL	SongTrial	NULL	SoundList	NULL	NULL	15	1	13	NULL	NULL	NULL	NULL
TMA Blocker Split Nostril Olfactometer_Pilot 2	30	1	<?xml version="1.0"?>\n<Clock xmlns:dt="urn:schemas-microsoft-com:datatypes"><Description dt:dt="string">E-Prime Primary Realtime Clock</Description><StartTime><Timestamp dt:dt="int">0</Timestamp><DateUtc dt:dt="string">2016-07-11T17:56:03Z</DateUtc></StartTime><FrequencyChanges><FrequencyChange><Frequency dt:dt="r8">2793160000</Frequency><Timestamp dt:dt="r8">3.39725759861729E+15</Timestamp><Current dt:dt="r8">0</Current><DateUtc dt:dt="string">2016-07-11T17:56:03Z</DateUtc></FrequencyChange></FrequencyChanges></Clock>\n	TMA Blocker Split Nostril Olfactometer_Pilot 2-30-1	74.912	1.0.0.1449	1	0		-999999	9	3803793	0	q	30797	3834590	-1190413399	2.0.10.242	2.0.10.242	07-11-2016	7/11/2016 5:56:03 PM	13:56:03	2.0.10.147	18	GREEN	NULL	NULL	BlockProcA	NULL	Test1	NULL	NULL	NULL	1	1	1	NULL	NULL	NULL	No	NULL	NULL	NULL	NULL	NULL	NULL	14	NULL	NULL	NULL	NULL	Nonenol	72	9	NULL	TrialProc	NULL	NULL	NULL	NULL	NULL	NULL	NULL	NULL	NULL	NULL	NULL	NULL	NULL	NULL	NULL	NULL	TMA	TrialList	NULL	NULL	NULL	NULL	NULL	NULL	8	2	14	NULL	NULL	NULL	1	NULL	NULL	NULL	NULL	NULL	NULL	NULL	NULL	NULL	NULL	NULL	NULL	NULL	NULL	NULL	NULL	NULL	NULL	NULL	1	26	26	PrepareProc	NULL	Prepare	NULL	NULL	NULL	NULL	NULL	NULL	NULL	NULL	NULL
TMA Blocker Split Nostril Olfactometer_Pilot 2	30	1	<?xml version="1.0"?>\n<Clock xmlns:dt="urn:schemas-microsoft-com:datatypes"><Description dt:dt="string">E-Prime Primary Realtime Clock</Description><StartTime><Timestamp dt:dt="int">0</Timestamp><DateUtc dt:dt="string">2016-07-11T17:56:03Z</DateUtc></StartTime><FrequencyChanges><FrequencyChange><Frequency dt:dt="r8">2793160000</Frequency><Timestamp dt:dt="r8">3.39725759861729E+15</Timestamp><Current dt:dt="r8">0</Current><DateUtc dt:dt="string">2016-07-11T17:56:03Z</DateUtc></FrequencyChange></FrequencyChanges></Clock>\n	TMA Blocker Split Nostril Olfactometer_Pilot 2-30-1	74.912	1.0.0.1449	1	0		-999999	9	3803793	0	q	30797	3834590	-1190413399	2.0.10.242	2.0.10.242	07-11-2016	7/11/2016 5:56:03 PM	13:56:03	2.0.10.147	18	GREEN	NULL	NULL	BlockProcA	NULL	Test1	NULL	NULL	NULL	1	1	1	NULL	NULL	NULL	No	NULL	NULL	NULL	NULL	NULL	NULL	14	NULL	NULL	NULL	NULL	Nonenol	72	9	NULL	TrialProc	NULL	NULL	NULL	NULL	NULL	NULL	NULL	NULL	NULL	NULL	NULL	NULL	NULL	NULL	NULL	NULL	TMA	TrialList	NULL	NULL	NULL	NULL	NULL	NULL	8	2	14	NULL	NULL	NULL	2	NULL	NULL	1	14	14	NULL	Green	226	497	NULL	NULL	NULL	NULL	NULL	NULL	NULL	NULL	NULL	1	NULL	NULL	NULL	ExperimentProc	How intense is the odor?	Experiment	NULL	NULL	NULL	NULL	NULL	NULL	NULL	NULL	?
TMA Blocker Split Nostril Olfactometer_Pilot 2	30	1	<?xml version="1.0"?>\n<Clock xmlns:dt="urn:schemas-microsoft-com:datatypes"><Description dt:dt="string">E-Prime Primary Realtime Clock</Description><StartTime><Timestamp dt:dt="int">0</Timestamp><DateUtc dt:dt="string">2016-07-11T17:56:03Z</DateUtc></StartTime><FrequencyChanges><FrequencyChange><Frequency dt:dt="r8">2793160000</Frequency><Timestamp dt:dt="r8">3.39725759861729E+15</Timestamp><Current dt:dt="r8">0</Current><DateUtc dt:dt="string">2016-07-11T17:56:03Z</DateUtc></FrequencyChange></FrequencyChanges></Clock>\n	TMA Blocker Split Nostril Olfactometer_Pilot 2-30-1	74.912	1.0.0.1449	1	0		-999999	9	3803793	0	q	30797	3834590	-1190413399	2.0.10.242	2.0.10.242	07-11-2016	7/11/2016 5:56:03 PM	13:56:03	2.0.10.147	18	GREEN	NULL	NULL	BlockProcA	NULL	Test1	NULL	NULL	NULL	1	1	1	NULL	NULL	NULL	No	NULL	NULL	NULL	NULL	NULL	NULL	14	NULL	NULL	NULL	NULL	Nonenol	72	9	NULL	TrialProc	NULL	NULL	NULL	NULL	NULL	NULL	NULL	NULL	NULL	NULL	NULL	NULL	NULL	NULL	NULL	NULL	TMA	TrialList	NULL	NULL	NULL	NULL	NULL	NULL	8	2	14	NULL	NULL	NULL	3	NULL	2	NULL	NULL	NULL	NULL	NULL	NULL	NULL	1	2	-999999	13	2484862	0	2	452	2485314	NULL	NULL	NULL	NULL	SongTrial	NULL	SoundList	NULL	NULL	11	1	14	NULL	NULL	NULL	NULL
TMA Blocker Split Nostril Olfactometer_Pilot 2	30	1	<?xml version="1.0"?>\n<Clock xmlns:dt="urn:schemas-microsoft-com:datatypes"><Description dt:dt="string">E-Prime Primary Realtime Clock</Description><StartTime><Timestamp dt:dt="int">0</Timestamp><DateUtc dt:dt="string">2016-07-11T17:56:03Z</DateUtc></StartTime><FrequencyChanges><FrequencyChange><Frequency dt:dt="r8">2793160000</Frequency><Timestamp dt:dt="r8">3.39725759861729E+15</Timestamp><Current dt:dt="r8">0</Current><DateUtc dt:dt="string">2016-07-11T17:56:03Z</DateUtc></FrequencyChange></FrequencyChanges></Clock>\n	TMA Blocker Split Nostril Olfactometer_Pilot 2-30-1	74.912	1.0.0.1449	1	0		-999999	9	3803793	0	q	30797	3834590	-1190413399	2.0.10.242	2.0.10.242	07-11-2016	7/11/2016 5:56:03 PM	13:56:03	2.0.10.147	18	GREEN	NULL	NULL	BlockProcA	NULL	Test1	NULL	NULL	NULL	1	1	1	NULL	NULL	NULL	No	NULL	NULL	NULL	NULL	NULL	NULL	15	NULL	NULL	NULL	NULL	Blank	66	48	NULL	TrialProc	NULL	NULL	NULL	NULL	NULL	NULL	NULL	NULL	NULL	NULL	NULL	NULL	NULL	NULL	NULL	NULL	Nonenol	TrialList	NULL	NULL	NULL	NULL	NULL	NULL	4	2	15	NULL	NULL	NULL	1	NULL	NULL	NULL	NULL	NULL	NULL	NULL	NULL	NULL	NULL	NULL	NULL	NULL	NULL	NULL	NULL	NULL	NULL	NULL	1	27	27	PrepareProc	NULL	Prepare	NULL	NULL	NULL	NULL	NULL	NULL	NULL	NULL	NULL
TMA Blocker Split Nostril Olfactometer_Pilot 2	30	1	<?xml version="1.0"?>\n<Clock xmlns:dt="urn:schemas-microsoft-com:datatypes"><Description dt:dt="string">E-Prime Primary Realtime Clock</Description><StartTime><Timestamp dt:dt="int">0</Timestamp><DateUtc dt:dt="string">2016-07-11T17:56:03Z</DateUtc></StartTime><FrequencyChanges><FrequencyChange><Frequency dt:dt="r8">2793160000</Frequency><Timestamp dt:dt="r8">3.39725759861729E+15</Timestamp><Current dt:dt="r8">0</Current><DateUtc dt:dt="string">2016-07-11T17:56:03Z</DateUtc></FrequencyChange></FrequencyChanges></Clock>\n	TMA Blocker Split Nostril Olfactometer_Pilot 2-30-1	74.912	1.0.0.1449	1	0		-999999	9	3803793	0	q	30797	3834590	-1190413399	2.0.10.242	2.0.10.242	07-11-2016	7/11/2016 5:56:03 PM	13:56:03	2.0.10.147	18	GREEN	NULL	NULL	BlockProcA	NULL	Test1	NULL	NULL	NULL	1	1	1	NULL	NULL	NULL	No	NULL	NULL	NULL	NULL	NULL	NULL	15	NULL	NULL	NULL	NULL	Blank	66	48	NULL	TrialProc	NULL	NULL	NULL	NULL	NULL	NULL	NULL	NULL	NULL	NULL	NULL	NULL	NULL	NULL	NULL	NULL	Nonenol	TrialList	NULL	NULL	NULL	NULL	NULL	NULL	4	2	15	NULL	NULL	NULL	2	NULL	NULL	1	15	15	NULL	Green	498	467	NULL	NULL	NULL	NULL	NULL	NULL	NULL	NULL	NULL	1	NULL	NULL	NULL	ExperimentProc	How intense is the odor?	Experiment	NULL	NULL	NULL	NULL	NULL	NULL	NULL	NULL	?
TMA Blocker Split Nostril Olfactometer_Pilot 2	30	1	<?xml version="1.0"?>\n<Clock xmlns:dt="urn:schemas-microsoft-com:datatypes"><Description dt:dt="string">E-Prime Primary Realtime Clock</Description><StartTime><Timestamp dt:dt="int">0</Timestamp><DateUtc dt:dt="string">2016-07-11T17:56:03Z</DateUtc></StartTime><FrequencyChanges><FrequencyChange><Frequency dt:dt="r8">2793160000</Frequency><Timestamp dt:dt="r8">3.39725759861729E+15</Timestamp><Current dt:dt="r8">0</Current><DateUtc dt:dt="string">2016-07-11T17:56:03Z</DateUtc></FrequencyChange></FrequencyChanges></Clock>\n	TMA Blocker Split Nostril Olfactometer_Pilot 2-30-1	74.912	1.0.0.1449	1	0		-999999	9	3803793	0	q	30797	3834590	-1190413399	2.0.10.242	2.0.10.242	07-11-2016	7/11/2016 5:56:03 PM	13:56:03	2.0.10.147	18	GREEN	NULL	NULL	BlockProcA	NULL	Test1	NULL	NULL	NULL	1	1	1	NULL	NULL	NULL	No	NULL	NULL	NULL	NULL	NULL	NULL	15	NULL	NULL	NULL	NULL	Blank	66	48	NULL	TrialProc	NULL	NULL	NULL	NULL	NULL	NULL	NULL	NULL	NULL	NULL	NULL	NULL	NULL	NULL	NULL	NULL	Nonenol	TrialList	NULL	NULL	NULL	NULL	NULL	NULL	4	2	15	NULL	NULL	NULL	3	NULL	1	NULL	NULL	NULL	NULL	NULL	NULL	NULL	1	1	-999999	13	2527606	0	1	298	2527904	NULL	NULL	NULL	NULL	SongTrial	NULL	SoundList	NULL	NULL	14	1	15	NULL	NULL	NULL	NULL
TMA Blocker Split Nostril Olfactometer_Pilot 2	30	1	<?xml version="1.0"?>\n<Clock xmlns:dt="urn:schemas-microsoft-com:datatypes"><Description dt:dt="string">E-Prime Primary Realtime Clock</Description><StartTime><Timestamp dt:dt="int">0</Timestamp><DateUtc dt:dt="string">2016-07-11T17:56:03Z</DateUtc></StartTime><FrequencyChanges><FrequencyChange><Frequency dt:dt="r8">2793160000</Frequency><Timestamp dt:dt="r8">3.39725759861729E+15</Timestamp><Current dt:dt="r8">0</Current><DateUtc dt:dt="string">2016-07-11T17:56:03Z</DateUtc></FrequencyChange></FrequencyChanges></Clock>\n	TMA Blocker Split Nostril Olfactometer_Pilot 2-30-1	74.912	1.0.0.1449	1	0		-999999	9	3803793	0	q	30797	3834590	-1190413399	2.0.10.242	2.0.10.242	07-11-2016	7/11/2016 5:56:03 PM	13:56:03	2.0.10.147	18	GREEN	NULL	NULL	BlockProcA	NULL	Test1	NULL	NULL	NULL	1	1	1	NULL	NULL	NULL	No	NULL	NULL	NULL	NULL	NULL	NULL	16	NULL	NULL	NULL	NULL	Blank	66	24	NULL	TrialProc	NULL	NULL	NULL	NULL	NULL	NULL	NULL	NULL	NULL	NULL	NULL	NULL	NULL	NULL	NULL	NULL	Blank	TrialList	NULL	NULL	NULL	NULL	NULL	NULL	9	2	16	NULL	NULL	NULL	1	NULL	NULL	NULL	NULL	NULL	NULL	NULL	NULL	NULL	NULL	NULL	NULL	NULL	NULL	NULL	NULL	NULL	NULL	NULL	1	28	28	PrepareProc	NULL	Prepare	NULL	NULL	NULL	NULL	NULL	NULL	NULL	NULL	NULL
TMA Blocker Split Nostril Olfactometer_Pilot 2	30	1	<?xml version="1.0"?>\n<Clock xmlns:dt="urn:schemas-microsoft-com:datatypes"><Description dt:dt="string">E-Prime Primary Realtime Clock</Description><StartTime><Timestamp dt:dt="int">0</Timestamp><DateUtc dt:dt="string">2016-07-11T17:56:03Z</DateUtc></StartTime><FrequencyChanges><FrequencyChange><Frequency dt:dt="r8">2793160000</Frequency><Timestamp dt:dt="r8">3.39725759861729E+15</Timestamp><Current dt:dt="r8">0</Current><DateUtc dt:dt="string">2016-07-11T17:56:03Z</DateUtc></FrequencyChange></FrequencyChanges></Clock>\n	TMA Blocker Split Nostril Olfactometer_Pilot 2-30-1	74.912	1.0.0.1449	1	0		-999999	9	3803793	0	q	30797	3834590	-1190413399	2.0.10.242	2.0.10.242	07-11-2016	7/11/2016 5:56:03 PM	13:56:03	2.0.10.147	18	GREEN	NULL	NULL	BlockProcA	NULL	Test1	NULL	NULL	NULL	1	1	1	NULL	NULL	NULL	No	NULL	NULL	NULL	NULL	NULL	NULL	16	NULL	NULL	NULL	NULL	Blank	66	24	NULL	TrialProc	NULL	NULL	NULL	NULL	NULL	NULL	NULL	NULL	NULL	NULL	NULL	NULL	NULL	NULL	NULL	NULL	Blank	TrialList	NULL	NULL	NULL	NULL	NULL	NULL	9	2	16	NULL	NULL	NULL	2	NULL	NULL	1	16	16	NULL	Green	545	413	NULL	NULL	NULL	NULL	NULL	NULL	NULL	NULL	NULL	1	NULL	NULL	NULL	ExperimentProc	How intense is the odor?	Experiment	NULL	NULL	NULL	NULL	NULL	NULL	NULL	NULL	?
TMA Blocker Split Nostril Olfactometer_Pilot 2	30	1	<?xml version="1.0"?>\n<Clock xmlns:dt="urn:schemas-microsoft-com:datatypes"><Description dt:dt="string">E-Prime Primary Realtime Clock</Description><StartTime><Timestamp dt:dt="int">0</Timestamp><DateUtc dt:dt="string">2016-07-11T17:56:03Z</DateUtc></StartTime><FrequencyChanges><FrequencyChange><Frequency dt:dt="r8">2793160000</Frequency><Timestamp dt:dt="r8">3.39725759861729E+15</Timestamp><Current dt:dt="r8">0</Current><DateUtc dt:dt="string">2016-07-11T17:56:03Z</DateUtc></FrequencyChange></FrequencyChanges></Clock>\n	TMA Blocker Split Nostril Olfactometer_Pilot 2-30-1	74.912	1.0.0.1449	1	0		-999999	9	3803793	0	q	30797	3834590	-1190413399	2.0.10.242	2.0.10.242	07-11-2016	7/11/2016 5:56:03 PM	13:56:03	2.0.10.147	18	GREEN	NULL	NULL	BlockProcA	NULL	Test1	NULL	NULL	NULL	1	1	1	NULL	NULL	NULL	No	NULL	NULL	NULL	NULL	NULL	NULL	16	NULL	NULL	NULL	NULL	Blank	66	24	NULL	TrialProc	NULL	NULL	NULL	NULL	NULL	NULL	NULL	NULL	NULL	NULL	NULL	NULL	NULL	NULL	NULL	NULL	Blank	TrialList	NULL	NULL	NULL	NULL	NULL	NULL	9	2	16	NULL	NULL	NULL	3	NULL	1	NULL	NULL	NULL	NULL	NULL	NULL	NULL	0	1	-999999	13	2572459	0	2	1948	2574407	NULL	NULL	NULL	NULL	SongTrial	NULL	SoundList	NULL	NULL	3	1	16	NULL	NULL	NULL	NULL
TMA Blocker Split Nostril Olfactometer_Pilot 2	30	1	<?xml version="1.0"?>\n<Clock xmlns:dt="urn:schemas-microsoft-com:datatypes"><Description dt:dt="string">E-Prime Primary Realtime Clock</Description><StartTime><Timestamp dt:dt="int">0</Timestamp><DateUtc dt:dt="string">2016-07-11T17:56:03Z</DateUtc></StartTime><FrequencyChanges><FrequencyChange><Frequency dt:dt="r8">2793160000</Frequency><Timestamp dt:dt="r8">3.39725759861729E+15</Timestamp><Current dt:dt="r8">0</Current><DateUtc dt:dt="string">2016-07-11T17:56:03Z</DateUtc></FrequencyChange></FrequencyChanges></Clock>\n	TMA Blocker Split Nostril Olfactometer_Pilot 2-30-1	74.912	1.0.0.1449	1	0		-999999	9	3803793	0	q	30797	3834590	-1190413399	2.0.10.242	2.0.10.242	07-11-2016	7/11/2016 5:56:03 PM	13:56:03	2.0.10.147	18	GREEN	NULL	NULL	BlockProcA	NULL	Test1	NULL	NULL	NULL	1	1	1	NULL	NULL	NULL	No	NULL	NULL	NULL	NULL	NULL	NULL	17	NULL	NULL	NULL	NULL	Blank	66	33	NULL	TrialProc	NULL	NULL	NULL	NULL	NULL	NULL	NULL	NULL	NULL	NULL	NULL	NULL	NULL	NULL	NULL	NULL	TMA+Nonenol	TrialList	NULL	NULL	NULL	NULL	NULL	NULL	6	2	17	NULL	NULL	NULL	1	NULL	NULL	NULL	NULL	NULL	NULL	NULL	NULL	NULL	NULL	NULL	NULL	NULL	NULL	NULL	NULL	NULL	NULL	NULL	1	29	29	PrepareProc	NULL	Prepare	NULL	NULL	NULL	NULL	NULL	NULL	NULL	NULL	NULL
