ExperimentName	Subject	Session	Clock.Information	DataFile.Basename	Display.RefreshRate	ExperimentVersion	Group	Menu1.ACC	Menu1.CRESP	Menu1.DurationError	Menu1.OnsetDelay	Menu1.OnsetTime	Menu1.OnsetToOnsetTime	Menu1.RESP	Menu1.RT	Menu1.RTTime	RandomSeed	RuntimeVersion	RuntimeVersionExpected	SessionDate	SessionStartDateTimeUtc	SessionTime	StudioVersion	Block	Antag	Green[Block]	IntensityRatingTraining[Block]	Procedure[Block]	Question[Block]	Running[Block]	ScaleTraining	ScaleTraining.Cycle	ScaleTraining.Sample	SniffingInstructionsList	SniffingInstructionsList.Cycle	SniffingInstructionsList.Sample	Test1	Test1.Cycle	Test1.Sample	Test2	Test2.Cycle	Test2.Sample	TestMode	Train1	Train1.Cycle	Train1.Sample	Train2	Train2.Cycle	Train2.Sample	Trial	CorrectAnswer[Trial]	Descriptor	Green[Trial]	IntensityRatingTraining[Trial]	LeftType	OdorLeft	OdorRight	OdorType	Prepare[Trial]	Prepare.Cycle[Trial]	Prepare.Sample[Trial]	Procedure[Trial]	Question[Trial]	QuizList	QuizList.Cycle	QuizList.Sample	QuizList2	QuizList2.Cycle	QuizList2.Sample	QuizPage.ACC	QuizPage.CRESP	QuizPage.DurationError	QuizPage.OnsetDelay	QuizPage.OnsetTime	QuizPage.OnsetToOnsetTime	QuizPage.RESP	QuizPage.RT	QuizPage.RTTime	RightType	Running[Trial]	TrainList	TrainList.Cycle	TrainList.Sample	TrainList2	TrainList2.Cycle	TrainList2.Sample	TrialList	TrialList.Cycle	TrialList.Sample	TrialList2	TrialList2.Cycle	TrialList2.Sample	SubTrial	Band	CorrectAnswer[SubTrial]	Experiment	Experiment.Cycle	Experiment.Sample	Gender	Green[SubTrial]	IntensityRatingAntag	IntensityRatingFishy	MorF.ACC	MorF.CRESP	MorF.DurationError	MorF.OnsetDelay	MorF.OnsetTime	MorF.OnsetToOnsetTime	MorF.RESP	MorF.RT	MorF.RTTime	OdorAndConcentration	Prepare[SubTrial]	Prepare.Cycle[SubTrial]	Prepare.Sample[SubTrial]	Procedure[SubTrial]	Question[SubTrial]	Running[SubTrial]	SongName	SongTitle	SoundList	SoundList.Cycle	SoundList.Sample	SoundList2	SoundList2.Cycle	SoundList2.Sample	TrialNo
TMA Blocker Split Nostril Olfactometer_Pilot 2	43	1	<?xml version="1.0"?>\n<Clock xmlns:dt="urn:schemas-microsoft-com:datatypes"><Description dt:dt="string">E-Prime Primary Realtime Clock</Description><StartTime><Timestamp dt:dt="int">0</Timestamp><DateUtc dt:dt="string">2016-07-15T18:13:29Z</DateUtc></StartTime><FrequencyChanges><FrequencyChange><Frequency dt:dt="r8">2793160000</Frequency><Timestamp dt:dt="r8">4.36548115349432E+15</Timestamp><Current dt:dt="r8">0</Current><DateUtc dt:dt="string">2016-07-15T18:13:29Z</DateUtc></FrequencyChange></FrequencyChanges></Clock>\n	TMA Blocker Split Nostril Olfactometer_Pilot 2-43-1	74.911	1.0.0.1473	1	0		-999999	12529	5420841	0	q	632067	6052908	-347032282	2.0.10.242	2.0.10.242	07-15-2016	7/15/2016 6:13:29 PM	14:13:29	2.0.10.147	1	NULL		81	ScaleTrainingProc	The brigtness of a well-lit room	ScaleTraining	5	2	1	NULL	NULL	NULL	NULL	NULL	NULL	NULL	NULL	NULL	NULL	NULL	NULL	NULL	NULL	NULL	NULL	NULL	NULL	NULL	NULL	NULL	NULL	NULL	NULL	NULL	NULL	NULL	NULL	NULL	NULL	NULL	NULL	NULL	NULL	NULL	NULL	NULL	NULL	NULL	NULL	NULL	NULL	NULL	NULL	NULL	NULL	NULL	NULL	NULL	NULL	NULL	NULL	NULL	NULL	NULL	NULL	NULL	NULL	NULL	NULL	NULL	NULL	NULL	NULL	NULL	NULL	NULL	NULL	NULL	NULL	NULL	NULL	NULL	NULL	NULL	NULL	NULL	NULL	NULL	NULL	NULL	NULL	NULL	NULL	NULL	NULL	NULL	NULL	NULL	NULL	NULL	NULL	NULL	NULL
TMA Blocker Split Nostril Olfactometer_Pilot 2	43	1	<?xml version="1.0"?>\n<Clock xmlns:dt="urn:schemas-microsoft-com:datatypes"><Description dt:dt="string">E-Prime Primary Realtime Clock</Description><StartTime><Timestamp dt:dt="int">0</Timestamp><DateUtc dt:dt="string">2016-07-15T18:13:29Z</DateUtc></StartTime><FrequencyChanges><FrequencyChange><Frequency dt:dt="r8">2793160000</Frequency><Timestamp dt:dt="r8">4.36548115349432E+15</Timestamp><Current dt:dt="r8">0</Current><DateUtc dt:dt="string">2016-07-15T18:13:29Z</DateUtc></FrequencyChange></FrequencyChanges></Clock>\n	TMA Blocker Split Nostril Olfactometer_Pilot 2-43-1	74.911	1.0.0.1473	1	0		-999999	12529	5420841	0	q	632067	6052908	-347032282	2.0.10.242	2.0.10.242	07-15-2016	7/15/2016 6:13:29 PM	14:13:29	2.0.10.147	2	NULL		405	ScaleTrainingProc	The strength of a firm handshake	ScaleTraining	6	2	2	NULL	NULL	NULL	NULL	NULL	NULL	NULL	NULL	NULL	NULL	NULL	NULL	NULL	NULL	NULL	NULL	NULL	NULL	NULL	NULL	NULL	NULL	NULL	NULL	NULL	NULL	NULL	NULL	NULL	NULL	NULL	NULL	NULL	NULL	NULL	NULL	NULL	NULL	NULL	NULL	NULL	NULL	NULL	NULL	NULL	NULL	NULL	NULL	NULL	NULL	NULL	NULL	NULL	NULL	NULL	NULL	NULL	NULL	NULL	NULL	NULL	NULL	NULL	NULL	NULL	NULL	NULL	NULL	NULL	NULL	NULL	NULL	NULL	NULL	NULL	NULL	NULL	NULL	NULL	NULL	NULL	NULL	NULL	NULL	NULL	NULL	NULL	NULL	NULL	NULL	NULL	NULL	NULL	NULL
TMA Blocker Split Nostril Olfactometer_Pilot 2	43	1	<?xml version="1.0"?>\n<Clock xmlns:dt="urn:schemas-microsoft-com:datatypes"><Description dt:dt="string">E-Prime Primary Realtime Clock</Description><StartTime><Timestamp dt:dt="int">0</Timestamp><DateUtc dt:dt="string">2016-07-15T18:13:29Z</DateUtc></StartTime><FrequencyChanges><FrequencyChange><Frequency dt:dt="r8">2793160000</Frequency><Timestamp dt:dt="r8">4.36548115349432E+15</Timestamp><Current dt:dt="r8">0</Current><DateUtc dt:dt="string">2016-07-15T18:13:29Z</DateUtc></FrequencyChange></FrequencyChanges></Clock>\n	TMA Blocker Split Nostril Olfactometer_Pilot 2-43-1	74.911	1.0.0.1473	1	0		-999999	12529	5420841	0	q	632067	6052908	-347032282	2.0.10.242	2.0.10.242	07-15-2016	7/15/2016 6:13:29 PM	14:13:29	2.0.10.147	3	NULL		550	ScaleTrainingProc	The loudness of a whisper	ScaleTraining	8	2	3	NULL	NULL	NULL	NULL	NULL	NULL	NULL	NULL	NULL	NULL	NULL	NULL	NULL	NULL	NULL	NULL	NULL	NULL	NULL	NULL	NULL	NULL	NULL	NULL	NULL	NULL	NULL	NULL	NULL	NULL	NULL	NULL	NULL	NULL	NULL	NULL	NULL	NULL	NULL	NULL	NULL	NULL	NULL	NULL	NULL	NULL	NULL	NULL	NULL	NULL	NULL	NULL	NULL	NULL	NULL	NULL	NULL	NULL	NULL	NULL	NULL	NULL	NULL	NULL	NULL	NULL	NULL	NULL	NULL	NULL	NULL	NULL	NULL	NULL	NULL	NULL	NULL	NULL	NULL	NULL	NULL	NULL	NULL	NULL	NULL	NULL	NULL	NULL	NULL	NULL	NULL	NULL	NULL	NULL
TMA Blocker Split Nostril Olfactometer_Pilot 2	43	1	<?xml version="1.0"?>\n<Clock xmlns:dt="urn:schemas-microsoft-com:datatypes"><Description dt:dt="string">E-Prime Primary Realtime Clock</Description><StartTime><Timestamp dt:dt="int">0</Timestamp><DateUtc dt:dt="string">2016-07-15T18:13:29Z</DateUtc></StartTime><FrequencyChanges><FrequencyChange><Frequency dt:dt="r8">2793160000</Frequency><Timestamp dt:dt="r8">4.36548115349432E+15</Timestamp><Current dt:dt="r8">0</Current><DateUtc dt:dt="string">2016-07-15T18:13:29Z</DateUtc></FrequencyChange></FrequencyChanges></Clock>\n	TMA Blocker Split Nostril Olfactometer_Pilot 2-43-1	74.911	1.0.0.1473	1	0		-999999	12529	5420841	0	q	632067	6052908	-347032282	2.0.10.242	2.0.10.242	07-15-2016	7/15/2016 6:13:29 PM	14:13:29	2.0.10.147	4	NULL		83	ScaleTrainingProc	The loudest sound you have ever heard	ScaleTraining	2	2	4	NULL	NULL	NULL	NULL	NULL	NULL	NULL	NULL	NULL	NULL	NULL	NULL	NULL	NULL	NULL	NULL	NULL	NULL	NULL	NULL	NULL	NULL	NULL	NULL	NULL	NULL	NULL	NULL	NULL	NULL	NULL	NULL	NULL	NULL	NULL	NULL	NULL	NULL	NULL	NULL	NULL	NULL	NULL	NULL	NULL	NULL	NULL	NULL	NULL	NULL	NULL	NULL	NULL	NULL	NULL	NULL	NULL	NULL	NULL	NULL	NULL	NULL	NULL	NULL	NULL	NULL	NULL	NULL	NULL	NULL	NULL	NULL	NULL	NULL	NULL	NULL	NULL	NULL	NULL	NULL	NULL	NULL	NULL	NULL	NULL	NULL	NULL	NULL	NULL	NULL	NULL	NULL	NULL	NULL
TMA Blocker Split Nostril Olfactometer_Pilot 2	43	1	<?xml version="1.0"?>\n<Clock xmlns:dt="urn:schemas-microsoft-com:datatypes"><Description dt:dt="string">E-Prime Primary Realtime Clock</Description><StartTime><Timestamp dt:dt="int">0</Timestamp><DateUtc dt:dt="string">2016-07-15T18:13:29Z</DateUtc></StartTime><FrequencyChanges><FrequencyChange><Frequency dt:dt="r8">2793160000</Frequency><Timestamp dt:dt="r8">4.36548115349432E+15</Timestamp><Current dt:dt="r8">0</Current><DateUtc dt:dt="string">2016-07-15T18:13:29Z</DateUtc></FrequencyChange></FrequencyChanges></Clock>\n	TMA Blocker Split Nostril Olfactometer_Pilot 2-43-1	74.911	1.0.0.1473	1	0		-999999	12529	5420841	0	q	632067	6052908	-347032282	2.0.10.242	2.0.10.242	07-15-2016	7/15/2016 6:13:29 PM	14:13:29	2.0.10.147	5	NULL		415	ScaleTrainingProc	The strength of the odor (intensity) of a rose	ScaleTraining	13	2	5	NULL	NULL	NULL	NULL	NULL	NULL	NULL	NULL	NULL	NULL	NULL	NULL	NULL	NULL	NULL	NULL	NULL	NULL	NULL	NULL	NULL	NULL	NULL	NULL	NULL	NULL	NULL	NULL	NULL	NULL	NULL	NULL	NULL	NULL	NULL	NULL	NULL	NULL	NULL	NULL	NULL	NULL	NULL	NULL	NULL	NULL	NULL	NULL	NULL	NULL	NULL	NULL	NULL	NULL	NULL	NULL	NULL	NULL	NULL	NULL	NULL	NULL	NULL	NULL	NULL	NULL	NULL	NULL	NULL	NULL	NULL	NULL	NULL	NULL	NULL	NULL	NULL	NULL	NULL	NULL	NULL	NULL	NULL	NULL	NULL	NULL	NULL	NULL	NULL	NULL	NULL	NULL	NULL	NULL
TMA Blocker Split Nostril Olfactometer_Pilot 2	43	1	<?xml version="1.0"?>\n<Clock xmlns:dt="urn:schemas-microsoft-com:datatypes"><Description dt:dt="string">E-Prime Primary Realtime Clock</Description><StartTime><Timestamp dt:dt="int">0</Timestamp><DateUtc dt:dt="string">2016-07-15T18:13:29Z</DateUtc></StartTime><FrequencyChanges><FrequencyChange><Frequency dt:dt="r8">2793160000</Frequency><Timestamp dt:dt="r8">4.36548115349432E+15</Timestamp><Current dt:dt="r8">0</Current><DateUtc dt:dt="string">2016-07-15T18:13:29Z</DateUtc></FrequencyChange></FrequencyChanges></Clock>\n	TMA Blocker Split Nostril Olfactometer_Pilot 2-43-1	74.911	1.0.0.1473	1	0		-999999	12529	5420841	0	q	632067	6052908	-347032282	2.0.10.242	2.0.10.242	07-15-2016	7/15/2016 6:13:29 PM	14:13:29	2.0.10.147	6	NULL		327	ScaleTrainingProc	The loudness of a conversation	ScaleTraining	7	2	6	NULL	NULL	NULL	NULL	NULL	NULL	NULL	NULL	NULL	NULL	NULL	NULL	NULL	NULL	NULL	NULL	NULL	NULL	NULL	NULL	NULL	NULL	NULL	NULL	NULL	NULL	NULL	NULL	NULL	NULL	NULL	NULL	NULL	NULL	NULL	NULL	NULL	NULL	NULL	NULL	NULL	NULL	NULL	NULL	NULL	NULL	NULL	NULL	NULL	NULL	NULL	NULL	NULL	NULL	NULL	NULL	NULL	NULL	NULL	NULL	NULL	NULL	NULL	NULL	NULL	NULL	NULL	NULL	NULL	NULL	NULL	NULL	NULL	NULL	NULL	NULL	NULL	NULL	NULL	NULL	NULL	NULL	NULL	NULL	NULL	NULL	NULL	NULL	NULL	NULL	NULL	NULL	NULL	NULL
TMA Blocker Split Nostril Olfactometer_Pilot 2	43	1	<?xml version="1.0"?>\n<Clock xmlns:dt="urn:schemas-microsoft-com:datatypes"><Description dt:dt="string">E-Prime Primary Realtime Clock</Description><StartTime><Timestamp dt:dt="int">0</Timestamp><DateUtc dt:dt="string">2016-07-15T18:13:29Z</DateUtc></StartTime><FrequencyChanges><FrequencyChange><Frequency dt:dt="r8">2793160000</Frequency><Timestamp dt:dt="r8">4.36548115349432E+15</Timestamp><Current dt:dt="r8">0</Current><DateUtc dt:dt="string">2016-07-15T18:13:29Z</DateUtc></FrequencyChange></FrequencyChanges></Clock>\n	TMA Blocker Split Nostril Olfactometer_Pilot 2-43-1	74.911	1.0.0.1473	1	0		-999999	12529	5420841	0	q	632067	6052908	-347032282	2.0.10.242	2.0.10.242	07-15-2016	7/15/2016 6:13:29 PM	14:13:29	2.0.10.147	7	NULL		87	ScaleTrainingProc	The heat from dipping your hand in scalding hot water	ScaleTraining	3	2	7	NULL	NULL	NULL	NULL	NULL	NULL	NULL	NULL	NULL	NULL	NULL	NULL	NULL	NULL	NULL	NULL	NULL	NULL	NULL	NULL	NULL	NULL	NULL	NULL	NULL	NULL	NULL	NULL	NULL	NULL	NULL	NULL	NULL	NULL	NULL	NULL	NULL	NULL	NULL	NULL	NULL	NULL	NULL	NULL	NULL	NULL	NULL	NULL	NULL	NULL	NULL	NULL	NULL	NULL	NULL	NULL	NULL	NULL	NULL	NULL	NULL	NULL	NULL	NULL	NULL	NULL	NULL	NULL	NULL	NULL	NULL	NULL	NULL	NULL	NULL	NULL	NULL	NULL	NULL	NULL	NULL	NULL	NULL	NULL	NULL	NULL	NULL	NULL	NULL	NULL	NULL	NULL	NULL	NULL
TMA Blocker Split Nostril Olfactometer_Pilot 2	43	1	<?xml version="1.0"?>\n<Clock xmlns:dt="urn:schemas-microsoft-com:datatypes"><Description dt:dt="string">E-Prime Primary Realtime Clock</Description><StartTime><Timestamp dt:dt="int">0</Timestamp><DateUtc dt:dt="string">2016-07-15T18:13:29Z</DateUtc></StartTime><FrequencyChanges><FrequencyChange><Frequency dt:dt="r8">2793160000</Frequency><Timestamp dt:dt="r8">4.36548115349432E+15</Timestamp><Current dt:dt="r8">0</Current><DateUtc dt:dt="string">2016-07-15T18:13:29Z</DateUtc></FrequencyChange></FrequencyChanges></Clock>\n	TMA Blocker Split Nostril Olfactometer_Pilot 2-43-1	74.911	1.0.0.1473	1	0		-999999	12529	5420841	0	q	632067	6052908	-347032282	2.0.10.242	2.0.10.242	07-15-2016	7/15/2016 6:13:29 PM	14:13:29	2.0.10.147	8	NULL		439	ScaleTrainingProc	The sweetness of cotton candy	ScaleTraining	12	2	8	NULL	NULL	NULL	NULL	NULL	NULL	NULL	NULL	NULL	NULL	NULL	NULL	NULL	NULL	NULL	NULL	NULL	NULL	NULL	NULL	NULL	NULL	NULL	NULL	NULL	NULL	NULL	NULL	NULL	NULL	NULL	NULL	NULL	NULL	NULL	NULL	NULL	NULL	NULL	NULL	NULL	NULL	NULL	NULL	NULL	NULL	NULL	NULL	NULL	NULL	NULL	NULL	NULL	NULL	NULL	NULL	NULL	NULL	NULL	NULL	NULL	NULL	NULL	NULL	NULL	NULL	NULL	NULL	NULL	NULL	NULL	NULL	NULL	NULL	NULL	NULL	NULL	NULL	NULL	NULL	NULL	NULL	NULL	NULL	NULL	NULL	NULL	NULL	NULL	NULL	NULL	NULL	NULL	NULL
TMA Blocker Split Nostril Olfactometer_Pilot 2	43	1	<?xml version="1.0"?>\n<Clock xmlns:dt="urn:schemas-microsoft-com:datatypes"><Description dt:dt="string">E-Prime Primary Realtime Clock</Description><StartTime><Timestamp dt:dt="int">0</Timestamp><DateUtc dt:dt="string">2016-07-15T18:13:29Z</DateUtc></StartTime><FrequencyChanges><FrequencyChange><Frequency dt:dt="r8">2793160000</Frequency><Timestamp dt:dt="r8">4.36548115349432E+15</Timestamp><Current dt:dt="r8">0</Current><DateUtc dt:dt="string">2016-07-15T18:13:29Z</DateUtc></FrequencyChange></FrequencyChanges></Clock>\n	TMA Blocker Split Nostril Olfactometer_Pilot 2-43-1	74.911	1.0.0.1473	1	0		-999999	12529	5420841	0	q	632067	6052908	-347032282	2.0.10.242	2.0.10.242	07-15-2016	7/15/2016 6:13:29 PM	14:13:29	2.0.10.147	9	NULL		358	ScaleTrainingProc	The warmth of a summer breeze on your face	ScaleTraining	10	2	9	NULL	NULL	NULL	NULL	NULL	NULL	NULL	NULL	NULL	NULL	NULL	NULL	NULL	NULL	NULL	NULL	NULL	NULL	NULL	NULL	NULL	NULL	NULL	NULL	NULL	NULL	NULL	NULL	NULL	NULL	NULL	NULL	NULL	NULL	NULL	NULL	NULL	NULL	NULL	NULL	NULL	NULL	NULL	NULL	NULL	NULL	NULL	NULL	NULL	NULL	NULL	NULL	NULL	NULL	NULL	NULL	NULL	NULL	NULL	NULL	NULL	NULL	NULL	NULL	NULL	NULL	NULL	NULL	NULL	NULL	NULL	NULL	NULL	NULL	NULL	NULL	NULL	NULL	NULL	NULL	NULL	NULL	NULL	NULL	NULL	NULL	NULL	NULL	NULL	NULL	NULL	NULL	NULL	NULL
TMA Blocker Split Nostril Olfactometer_Pilot 2	43	1	<?xml version="1.0"?>\n<Clock xmlns:dt="urn:schemas-microsoft-com:datatypes"><Description dt:dt="string">E-Prime Primary Realtime Clock</Description><StartTime><Timestamp dt:dt="int">0</Timestamp><DateUtc dt:dt="string">2016-07-15T18:13:29Z</DateUtc></StartTime><FrequencyChanges><FrequencyChange><Frequency dt:dt="r8">2793160000</Frequency><Timestamp dt:dt="r8">4.36548115349432E+15</Timestamp><Current dt:dt="r8">0</Current><DateUtc dt:dt="string">2016-07-15T18:13:29Z</DateUtc></FrequencyChange></FrequencyChanges></Clock>\n	TMA Blocker Split Nostril Olfactometer_Pilot 2-43-1	74.911	1.0.0.1473	1	0		-999999	12529	5420841	0	q	632067	6052908	-347032282	2.0.10.242	2.0.10.242	07-15-2016	7/15/2016 6:13:29 PM	14:13:29	2.0.10.147	10	NULL		349	scaleTrainingProc	The sourness of a lemon	ScaleTraining	15	2	10	NULL	NULL	NULL	NULL	NULL	NULL	NULL	NULL	NULL	NULL	NULL	NULL	NULL	NULL	NULL	NULL	NULL	NULL	NULL	NULL	NULL	NULL	NULL	NULL	NULL	NULL	NULL	NULL	NULL	NULL	NULL	NULL	NULL	NULL	NULL	NULL	NULL	NULL	NULL	NULL	NULL	NULL	NULL	NULL	NULL	NULL	NULL	NULL	NULL	NULL	NULL	NULL	NULL	NULL	NULL	NULL	NULL	NULL	NULL	NULL	NULL	NULL	NULL	NULL	NULL	NULL	NULL	NULL	NULL	NULL	NULL	NULL	NULL	NULL	NULL	NULL	NULL	NULL	NULL	NULL	NULL	NULL	NULL	NULL	NULL	NULL	NULL	NULL	NULL	NULL	NULL	NULL	NULL	NULL
TMA Blocker Split Nostril Olfactometer_Pilot 2	43	1	<?xml version="1.0"?>\n<Clock xmlns:dt="urn:schemas-microsoft-com:datatypes"><Description dt:dt="string">E-Prime Primary Realtime Clock</Description><StartTime><Timestamp dt:dt="int">0</Timestamp><DateUtc dt:dt="string">2016-07-15T18:13:29Z</DateUtc></StartTime><FrequencyChanges><FrequencyChange><Frequency dt:dt="r8">2793160000</Frequency><Timestamp dt:dt="r8">4.36548115349432E+15</Timestamp><Current dt:dt="r8">0</Current><DateUtc dt:dt="string">2016-07-15T18:13:29Z</DateUtc></FrequencyChange></FrequencyChanges></Clock>\n	TMA Blocker Split Nostril Olfactometer_Pilot 2-43-1	74.911	1.0.0.1473	1	0		-999999	12529	5420841	0	q	632067	6052908	-347032282	2.0.10.242	2.0.10.242	07-15-2016	7/15/2016 6:13:29 PM	14:13:29	2.0.10.147	11	NULL		408	ScaleTrainingProc	The coolness from a peppermint candy	ScaleTraining	9	2	11	NULL	NULL	NULL	NULL	NULL	NULL	NULL	NULL	NULL	NULL	NULL	NULL	NULL	NULL	NULL	NULL	NULL	NULL	NULL	NULL	NULL	NULL	NULL	NULL	NULL	NULL	NULL	NULL	NULL	NULL	NULL	NULL	NULL	NULL	NULL	NULL	NULL	NULL	NULL	NULL	NULL	NULL	NULL	NULL	NULL	NULL	NULL	NULL	NULL	NULL	NULL	NULL	NULL	NULL	NULL	NULL	NULL	NULL	NULL	NULL	NULL	NULL	NULL	NULL	NULL	NULL	NULL	NULL	NULL	NULL	NULL	NULL	NULL	NULL	NULL	NULL	NULL	NULL	NULL	NULL	NULL	NULL	NULL	NULL	NULL	NULL	NULL	NULL	NULL	NULL	NULL	NULL	NULL	NULL
TMA Blocker Split Nostril Olfactometer_Pilot 2	43	1	<?xml version="1.0"?>\n<Clock xmlns:dt="urn:schemas-microsoft-com:datatypes"><Description dt:dt="string">E-Prime Primary Realtime Clock</Description><StartTime><Timestamp dt:dt="int">0</Timestamp><DateUtc dt:dt="string">2016-07-15T18:13:29Z</DateUtc></StartTime><FrequencyChanges><FrequencyChange><Frequency dt:dt="r8">2793160000</Frequency><Timestamp dt:dt="r8">4.36548115349432E+15</Timestamp><Current dt:dt="r8">0</Current><DateUtc dt:dt="string">2016-07-15T18:13:29Z</DateUtc></FrequencyChange></FrequencyChanges></Clock>\n	TMA Blocker Split Nostril Olfactometer_Pilot 2-43-1	74.911	1.0.0.1473	1	0		-999999	12529	5420841	0	q	632067	6052908	-347032282	2.0.10.242	2.0.10.242	07-15-2016	7/15/2016 6:13:29 PM	14:13:29	2.0.10.147	12	NULL		330	ScaleTrainingProc	The pain from biting your tongue	ScaleTraining	4	2	12	NULL	NULL	NULL	NULL	NULL	NULL	NULL	NULL	NULL	NULL	NULL	NULL	NULL	NULL	NULL	NULL	NULL	NULL	NULL	NULL	NULL	NULL	NULL	NULL	NULL	NULL	NULL	NULL	NULL	NULL	NULL	NULL	NULL	NULL	NULL	NULL	NULL	NULL	NULL	NULL	NULL	NULL	NULL	NULL	NULL	NULL	NULL	NULL	NULL	NULL	NULL	NULL	NULL	NULL	NULL	NULL	NULL	NULL	NULL	NULL	NULL	NULL	NULL	NULL	NULL	NULL	NULL	NULL	NULL	NULL	NULL	NULL	NULL	NULL	NULL	NULL	NULL	NULL	NULL	NULL	NULL	NULL	NULL	NULL	NULL	NULL	NULL	NULL	NULL	NULL	NULL	NULL	NULL	NULL
TMA Blocker Split Nostril Olfactometer_Pilot 2	43	1	<?xml version="1.0"?>\n<Clock xmlns:dt="urn:schemas-microsoft-com:datatypes"><Description dt:dt="string">E-Prime Primary Realtime Clock</Description><StartTime><Timestamp dt:dt="int">0</Timestamp><DateUtc dt:dt="string">2016-07-15T18:13:29Z</DateUtc></StartTime><FrequencyChanges><FrequencyChange><Frequency dt:dt="r8">2793160000</Frequency><Timestamp dt:dt="r8">4.36548115349432E+15</Timestamp><Current dt:dt="r8">0</Current><DateUtc dt:dt="string">2016-07-15T18:13:29Z</DateUtc></FrequencyChange></FrequencyChanges></Clock>\n	TMA Blocker Split Nostril Olfactometer_Pilot 2-43-1	74.911	1.0.0.1473	1	0		-999999	12529	5420841	0	q	632067	6052908	-347032282	2.0.10.242	2.0.10.242	07-15-2016	7/15/2016 6:13:29 PM	14:13:29	2.0.10.147	13	NULL		81	ScaleTrainingProc	The brightest light you have ever seen	ScaleTraining	1	2	13	NULL	NULL	NULL	NULL	NULL	NULL	NULL	NULL	NULL	NULL	NULL	NULL	NULL	NULL	NULL	NULL	NULL	NULL	NULL	NULL	NULL	NULL	NULL	NULL	NULL	NULL	NULL	NULL	NULL	NULL	NULL	NULL	NULL	NULL	NULL	NULL	NULL	NULL	NULL	NULL	NULL	NULL	NULL	NULL	NULL	NULL	NULL	NULL	NULL	NULL	NULL	NULL	NULL	NULL	NULL	NULL	NULL	NULL	NULL	NULL	NULL	NULL	NULL	NULL	NULL	NULL	NULL	NULL	NULL	NULL	NULL	NULL	NULL	NULL	NULL	NULL	NULL	NULL	NULL	NULL	NULL	NULL	NULL	NULL	NULL	NULL	NULL	NULL	NULL	NULL	NULL	NULL	NULL	NULL
TMA Blocker Split Nostril Olfactometer_Pilot 2	43	1	<?xml version="1.0"?>\n<Clock xmlns:dt="urn:schemas-microsoft-com:datatypes"><Description dt:dt="string">E-Prime Primary Realtime Clock</Description><StartTime><Timestamp dt:dt="int">0</Timestamp><DateUtc dt:dt="string">2016-07-15T18:13:29Z</DateUtc></StartTime><FrequencyChanges><FrequencyChange><Frequency dt:dt="r8">2793160000</Frequency><Timestamp dt:dt="r8">4.36548115349432E+15</Timestamp><Current dt:dt="r8">0</Current><DateUtc dt:dt="string">2016-07-15T18:13:29Z</DateUtc></FrequencyChange></FrequencyChanges></Clock>\n	TMA Blocker Split Nostril Olfactometer_Pilot 2-43-1	74.911	1.0.0.1473	1	0		-999999	12529	5420841	0	q	632067	6052908	-347032282	2.0.10.242	2.0.10.242	07-15-2016	7/15/2016 6:13:29 PM	14:13:29	2.0.10.147	14	NULL		312	ScaleTrainingProc	The strongest odor you have ever smelled	ScaleTraining	14	2	14	NULL	NULL	NULL	NULL	NULL	NULL	NULL	NULL	NULL	NULL	NULL	NULL	NULL	NULL	NULL	NULL	NULL	NULL	NULL	NULL	NULL	NULL	NULL	NULL	NULL	NULL	NULL	NULL	NULL	NULL	NULL	NULL	NULL	NULL	NULL	NULL	NULL	NULL	NULL	NULL	NULL	NULL	NULL	NULL	NULL	NULL	NULL	NULL	NULL	NULL	NULL	NULL	NULL	NULL	NULL	NULL	NULL	NULL	NULL	NULL	NULL	NULL	NULL	NULL	NULL	NULL	NULL	NULL	NULL	NULL	NULL	NULL	NULL	NULL	NULL	NULL	NULL	NULL	NULL	NULL	NULL	NULL	NULL	NULL	NULL	NULL	NULL	NULL	NULL	NULL	NULL	NULL	NULL	NULL
TMA Blocker Split Nostril Olfactometer_Pilot 2	43	1	<?xml version="1.0"?>\n<Clock xmlns:dt="urn:schemas-microsoft-com:datatypes"><Description dt:dt="string">E-Prime Primary Realtime Clock</Description><StartTime><Timestamp dt:dt="int">0</Timestamp><DateUtc dt:dt="string">2016-07-15T18:13:29Z</DateUtc></StartTime><FrequencyChanges><FrequencyChange><Frequency dt:dt="r8">2793160000</Frequency><Timestamp dt:dt="r8">4.36548115349432E+15</Timestamp><Current dt:dt="r8">0</Current><DateUtc dt:dt="string">2016-07-15T18:13:29Z</DateUtc></FrequencyChange></FrequencyChanges></Clock>\n	TMA Blocker Split Nostril Olfactometer_Pilot 2-43-1	74.911	1.0.0.1473	1	0		-999999	12529	5420841	0	q	632067	6052908	-347032282	2.0.10.242	2.0.10.242	07-15-2016	7/15/2016 6:13:29 PM	14:13:29	2.0.10.147	15	NULL		502	ScaleTrainingProc	The brightness of a dimly-lit room	ScaleTraining	11	2	15	NULL	NULL	NULL	NULL	NULL	NULL	NULL	NULL	NULL	NULL	NULL	NULL	NULL	NULL	NULL	NULL	NULL	NULL	NULL	NULL	NULL	NULL	NULL	NULL	NULL	NULL	NULL	NULL	NULL	NULL	NULL	NULL	NULL	NULL	NULL	NULL	NULL	NULL	NULL	NULL	NULL	NULL	NULL	NULL	NULL	NULL	NULL	NULL	NULL	NULL	NULL	NULL	NULL	NULL	NULL	NULL	NULL	NULL	NULL	NULL	NULL	NULL	NULL	NULL	NULL	NULL	NULL	NULL	NULL	NULL	NULL	NULL	NULL	NULL	NULL	NULL	NULL	NULL	NULL	NULL	NULL	NULL	NULL	NULL	NULL	NULL	NULL	NULL	NULL	NULL	NULL	NULL	NULL	NULL
TMA Blocker Split Nostril Olfactometer_Pilot 2	43	1	<?xml version="1.0"?>\n<Clock xmlns:dt="urn:schemas-microsoft-com:datatypes"><Description dt:dt="string">E-Prime Primary Realtime Clock</Description><StartTime><Timestamp dt:dt="int">0</Timestamp><DateUtc dt:dt="string">2016-07-15T18:13:29Z</DateUtc></StartTime><FrequencyChanges><FrequencyChange><Frequency dt:dt="r8">2793160000</Frequency><Timestamp dt:dt="r8">4.36548115349432E+15</Timestamp><Current dt:dt="r8">0</Current><DateUtc dt:dt="string">2016-07-15T18:13:29Z</DateUtc></FrequencyChange></FrequencyChanges></Clock>\n	TMA Blocker Split Nostril Olfactometer_Pilot 2-43-1	74.911	1.0.0.1473	1	0		-999999	12529	5420841	0	q	632067	6052908	-347032282	2.0.10.242	2.0.10.242	07-15-2016	7/15/2016 6:13:29 PM	14:13:29	2.0.10.147	16	NULL		NULL	SniffingInstructionsProc	NULL	SniffingInstructionsList	NULL	NULL	NULL	1	1	1	NULL	NULL	NULL	NULL	NULL	NULL	NULL	NULL	NULL	NULL	NULL	NULL	NULL	1	NULL	NULL		NULL	NULL	NULL	NULL	NULL	1	1	1	PrepareProc	NULL	NULL	NULL	NULL	NULL	NULL	NULL	NULL	NULL	NULL	NULL	NULL	NULL	NULL	NULL	NULL	NULL	Prepare	NULL	NULL	NULL	NULL	NULL	NULL	NULL	NULL	NULL	NULL	NULL	NULL	NULL	NULL	NULL	NULL	NULL	NULL	NULL	NULL	NULL	NULL	NULL	NULL	NULL	NULL	NULL	NULL	NULL	NULL	NULL	NULL	NULL	NULL	NULL	NULL	NULL	NULL	NULL	NULL	NULL	NULL	NULL	NULL	NULL	NULL	NULL
TMA Blocker Split Nostril Olfactometer_Pilot 2	43	1	<?xml version="1.0"?>\n<Clock xmlns:dt="urn:schemas-microsoft-com:datatypes"><Description dt:dt="string">E-Prime Primary Realtime Clock</Description><StartTime><Timestamp dt:dt="int">0</Timestamp><DateUtc dt:dt="string">2016-07-15T18:13:29Z</DateUtc></StartTime><FrequencyChanges><FrequencyChange><Frequency dt:dt="r8">2793160000</Frequency><Timestamp dt:dt="r8">4.36548115349432E+15</Timestamp><Current dt:dt="r8">0</Current><DateUtc dt:dt="string">2016-07-15T18:13:29Z</DateUtc></FrequencyChange></FrequencyChanges></Clock>\n	TMA Blocker Split Nostril Olfactometer_Pilot 2-43-1	74.911	1.0.0.1473	1	0		-999999	12529	5420841	0	q	632067	6052908	-347032282	2.0.10.242	2.0.10.242	07-15-2016	7/15/2016 6:13:29 PM	14:13:29	2.0.10.147	17	GREEN	NULL	NULL	TestProcA	NULL	Train1	NULL	NULL	NULL	NULL	NULL	NULL	NULL	NULL	NULL	NULL	NULL	NULL	Yes	1	1	1	NULL	NULL	NULL	1	NULL	Fishy	Green	547	NULL	3	24	NULL	NULL	NULL	NULL	training	Strength of the Odor (How fishy is it?)	NULL	NULL	NULL	NULL	NULL	NULL	NULL	NULL	NULL	NULL	NULL	NULL	NULL	NULL	NULL	NULL	TrainList	1	1	1	NULL	NULL	NULL	NULL	NULL	NULL	NULL	NULL	NULL	1	NULL	NULL	NULL	NULL	NULL	NULL	Green	NULL	NULL	NULL	NULL	NULL	NULL	NULL	NULL	NULL	NULL	NULL	NULL	1	2	2	PrepareProc	Strength of the Odor (How fishy is it?)	Prepare	NULL	NULL	NULL	NULL	NULL	NULL	NULL	NULL	NULL
TMA Blocker Split Nostril Olfactometer_Pilot 2	43	1	<?xml version="1.0"?>\n<Clock xmlns:dt="urn:schemas-microsoft-com:datatypes"><Description dt:dt="string">E-Prime Primary Realtime Clock</Description><StartTime><Timestamp dt:dt="int">0</Timestamp><DateUtc dt:dt="string">2016-07-15T18:13:29Z</DateUtc></StartTime><FrequencyChanges><FrequencyChange><Frequency dt:dt="r8">2793160000</Frequency><Timestamp dt:dt="r8">4.36548115349432E+15</Timestamp><Current dt:dt="r8">0</Current><DateUtc dt:dt="string">2016-07-15T18:13:29Z</DateUtc></FrequencyChange></FrequencyChanges></Clock>\n	TMA Blocker Split Nostril Olfactometer_Pilot 2-43-1	74.911	1.0.0.1473	1	0		-999999	12529	5420841	0	q	632067	6052908	-347032282	2.0.10.242	2.0.10.242	07-15-2016	7/15/2016 6:13:29 PM	14:13:29	2.0.10.147	17	GREEN	NULL	NULL	TestProcA	NULL	Train1	NULL	NULL	NULL	NULL	NULL	NULL	NULL	NULL	NULL	NULL	NULL	NULL	Yes	1	1	1	NULL	NULL	NULL	2	NULL	Green	Green	562	NULL	72	24	NULL	NULL	NULL	NULL	training	Strength of the Odor (How green is it?)	NULL	NULL	NULL	NULL	NULL	NULL	NULL	NULL	NULL	NULL	NULL	NULL	NULL	NULL	NULL	NULL	TrainList	2	1	2	NULL	NULL	NULL	NULL	NULL	NULL	NULL	NULL	NULL	1	NULL	NULL	NULL	NULL	NULL	NULL	Green	NULL	NULL	NULL	NULL	NULL	NULL	NULL	NULL	NULL	NULL	NULL	NULL	1	3	3	PrepareProc	Strength of the Odor (How green is it?)	Prepare	NULL	NULL	NULL	NULL	NULL	NULL	NULL	NULL	NULL
TMA Blocker Split Nostril Olfactometer_Pilot 2	43	1	<?xml version="1.0"?>\n<Clock xmlns:dt="urn:schemas-microsoft-com:datatypes"><Description dt:dt="string">E-Prime Primary Realtime Clock</Description><StartTime><Timestamp dt:dt="int">0</Timestamp><DateUtc dt:dt="string">2016-07-15T18:13:29Z</DateUtc></StartTime><FrequencyChanges><FrequencyChange><Frequency dt:dt="r8">2793160000</Frequency><Timestamp dt:dt="r8">4.36548115349432E+15</Timestamp><Current dt:dt="r8">0</Current><DateUtc dt:dt="string">2016-07-15T18:13:29Z</DateUtc></FrequencyChange></FrequencyChanges></Clock>\n	TMA Blocker Split Nostril Olfactometer_Pilot 2-43-1	74.911	1.0.0.1473	1	0		-999999	12529	5420841	0	q	632067	6052908	-347032282	2.0.10.242	2.0.10.242	07-15-2016	7/15/2016 6:13:29 PM	14:13:29	2.0.10.147	17	GREEN	NULL	NULL	TestProcA	NULL	Train1	NULL	NULL	NULL	NULL	NULL	NULL	NULL	NULL	NULL	NULL	NULL	NULL	Yes	1	1	1	NULL	NULL	NULL	3	2	NULL	Green	562	NULL	66	9	Fishy	NULL	NULL	NULL	Quiz	How strong is the odor?	4	1	1	NULL	NULL	NULL	0	2	-999999	39	2271228	0	1	4335	2275563	NULL	QuizList	NULL	NULL	NULL	NULL	NULL	NULL	NULL	NULL	NULL	NULL	NULL	NULL	1	NULL	2	NULL	NULL	NULL	NULL	Green	NULL	NULL	NULL	NULL	NULL	NULL	NULL	NULL	NULL	NULL	NULL	NULL	1	4	4	PrepareProc	How strong is the odor?	Prepare	NULL	NULL	NULL	NULL	NULL	NULL	NULL	NULL	NULL
TMA Blocker Split Nostril Olfactometer_Pilot 2	43	1	<?xml version="1.0"?>\n<Clock xmlns:dt="urn:schemas-microsoft-com:datatypes"><Description dt:dt="string">E-Prime Primary Realtime Clock</Description><StartTime><Timestamp dt:dt="int">0</Timestamp><DateUtc dt:dt="string">2016-07-15T18:13:29Z</DateUtc></StartTime><FrequencyChanges><FrequencyChange><Frequency dt:dt="r8">2793160000</Frequency><Timestamp dt:dt="r8">4.36548115349432E+15</Timestamp><Current dt:dt="r8">0</Current><DateUtc dt:dt="string">2016-07-15T18:13:29Z</DateUtc></FrequencyChange></FrequencyChanges></Clock>\n	TMA Blocker Split Nostril Olfactometer_Pilot 2-43-1	74.911	1.0.0.1473	1	0		-999999	12529	5420841	0	q	632067	6052908	-347032282	2.0.10.242	2.0.10.242	07-15-2016	7/15/2016 6:13:29 PM	14:13:29	2.0.10.147	17	GREEN	NULL	NULL	TestProcA	NULL	Train1	NULL	NULL	NULL	NULL	NULL	NULL	NULL	NULL	NULL	NULL	NULL	NULL	Yes	1	1	1	NULL	NULL	NULL	4	2	NULL	Green	571	NULL	3	24	Fishy	NULL	NULL	NULL	Quiz	How strong is the odor?	1	1	2	NULL	NULL	NULL	0	2	-999999	39	2324865	0	1	2344	2327209	NULL	QuizList	NULL	NULL	NULL	NULL	NULL	NULL	NULL	NULL	NULL	NULL	NULL	NULL	1	NULL	2	NULL	NULL	NULL	NULL	Green	NULL	NULL	NULL	NULL	NULL	NULL	NULL	NULL	NULL	NULL	NULL	NULL	1	5	5	PrepareProc	How strong is the odor?	Prepare	NULL	NULL	NULL	NULL	NULL	NULL	NULL	NULL	NULL
TMA Blocker Split Nostril Olfactometer_Pilot 2	43	1	<?xml version="1.0"?>\n<Clock xmlns:dt="urn:schemas-microsoft-com:datatypes"><Description dt:dt="string">E-Prime Primary Realtime Clock</Description><StartTime><Timestamp dt:dt="int">0</Timestamp><DateUtc dt:dt="string">2016-07-15T18:13:29Z</DateUtc></StartTime><FrequencyChanges><FrequencyChange><Frequency dt:dt="r8">2793160000</Frequency><Timestamp dt:dt="r8">4.36548115349432E+15</Timestamp><Current dt:dt="r8">0</Current><DateUtc dt:dt="string">2016-07-15T18:13:29Z</DateUtc></FrequencyChange></FrequencyChanges></Clock>\n	TMA Blocker Split Nostril Olfactometer_Pilot 2-43-1	74.911	1.0.0.1473	1	0		-999999	12529	5420841	0	q	632067	6052908	-347032282	2.0.10.242	2.0.10.242	07-15-2016	7/15/2016 6:13:29 PM	14:13:29	2.0.10.147	17	GREEN	NULL	NULL	TestProcA	NULL	Train1	NULL	NULL	NULL	NULL	NULL	NULL	NULL	NULL	NULL	NULL	NULL	NULL	Yes	1	1	1	NULL	NULL	NULL	5	1	NULL	Green	562	NULL	72	24	Green	NULL	NULL	NULL	Quiz	How strong is the odor?	2	1	3	NULL	NULL	NULL	1	1	-999999	39	2378448	0	1	3808	2382256	NULL	QuizList	NULL	NULL	NULL	NULL	NULL	NULL	NULL	NULL	NULL	NULL	NULL	NULL	1	NULL	1	NULL	NULL	NULL	NULL	Green	NULL	NULL	NULL	NULL	NULL	NULL	NULL	NULL	NULL	NULL	NULL	NULL	1	6	6	PrepareProc	How strong is the odor?	Prepare	NULL	NULL	NULL	NULL	NULL	NULL	NULL	NULL	NULL
TMA Blocker Split Nostril Olfactometer_Pilot 2	43	1	<?xml version="1.0"?>\n<Clock xmlns:dt="urn:schemas-microsoft-com:datatypes"><Description dt:dt="string">E-Prime Primary Realtime Clock</Description><StartTime><Timestamp dt:dt="int">0</Timestamp><DateUtc dt:dt="string">2016-07-15T18:13:29Z</DateUtc></StartTime><FrequencyChanges><FrequencyChange><Frequency dt:dt="r8">2793160000</Frequency><Timestamp dt:dt="r8">4.36548115349432E+15</Timestamp><Current dt:dt="r8">0</Current><DateUtc dt:dt="string">2016-07-15T18:13:29Z</DateUtc></FrequencyChange></FrequencyChanges></Clock>\n	TMA Blocker Split Nostril Olfactometer_Pilot 2-43-1	74.911	1.0.0.1473	1	0		-999999	12529	5420841	0	q	632067	6052908	-347032282	2.0.10.242	2.0.10.242	07-15-2016	7/15/2016 6:13:29 PM	14:13:29	2.0.10.147	17	GREEN	NULL	NULL	TestProcA	NULL	Train1	NULL	NULL	NULL	NULL	NULL	NULL	NULL	NULL	NULL	NULL	NULL	NULL	Yes	1	1	1	NULL	NULL	NULL	6	1	NULL	Green	554	NULL	66	48	Green	NULL	NULL	NULL	Quiz	How strong is the odor?	3	1	4	NULL	NULL	NULL	1	1	-999999	39	2430403	0	1	2995	2433398	NULL	QuizList	NULL	NULL	NULL	NULL	NULL	NULL	NULL	NULL	NULL	NULL	NULL	NULL	1	NULL	1	NULL	NULL	NULL	NULL	Green	NULL	NULL	NULL	NULL	NULL	NULL	NULL	NULL	NULL	NULL	NULL	NULL	1	7	7	PrepareProc	How strong is the odor?	Prepare	NULL	NULL	NULL	NULL	NULL	NULL	NULL	NULL	NULL
TMA Blocker Split Nostril Olfactometer_Pilot 2	43	1	<?xml version="1.0"?>\n<Clock xmlns:dt="urn:schemas-microsoft-com:datatypes"><Description dt:dt="string">E-Prime Primary Realtime Clock</Description><StartTime><Timestamp dt:dt="int">0</Timestamp><DateUtc dt:dt="string">2016-07-15T18:13:29Z</DateUtc></StartTime><FrequencyChanges><FrequencyChange><Frequency dt:dt="r8">2793160000</Frequency><Timestamp dt:dt="r8">4.36548115349432E+15</Timestamp><Current dt:dt="r8">0</Current><DateUtc dt:dt="string">2016-07-15T18:13:29Z</DateUtc></FrequencyChange></FrequencyChanges></Clock>\n	TMA Blocker Split Nostril Olfactometer_Pilot 2-43-1	74.911	1.0.0.1473	1	0		-999999	12529	5420841	0	q	632067	6052908	-347032282	2.0.10.242	2.0.10.242	07-15-2016	7/15/2016 6:13:29 PM	14:13:29	2.0.10.147	18	GREEN	NULL	NULL	TestProcA	NULL	Train1	NULL	NULL	NULL	NULL	NULL	NULL	NULL	NULL	NULL	NULL	NULL	NULL	Yes	1	2	2	NULL	NULL	NULL	1	NULL	Fishy	Green	572	NULL	3	24	NULL	NULL	NULL	NULL	training	Strength of the Odor (How fishy is it?)	NULL	NULL	NULL	NULL	NULL	NULL	NULL	NULL	NULL	NULL	NULL	NULL	NULL	NULL	NULL	NULL	TrainList	1	2	3	NULL	NULL	NULL	NULL	NULL	NULL	NULL	NULL	NULL	1	NULL	NULL	NULL	NULL	NULL	NULL	Green	NULL	NULL	NULL	NULL	NULL	NULL	NULL	NULL	NULL	NULL	NULL	NULL	1	8	8	PrepareProc	Strength of the Odor (How fishy is it?)	Prepare	NULL	NULL	NULL	NULL	NULL	NULL	NULL	NULL	NULL
TMA Blocker Split Nostril Olfactometer_Pilot 2	43	1	<?xml version="1.0"?>\n<Clock xmlns:dt="urn:schemas-microsoft-com:datatypes"><Description dt:dt="string">E-Prime Primary Realtime Clock</Description><StartTime><Timestamp dt:dt="int">0</Timestamp><DateUtc dt:dt="string">2016-07-15T18:13:29Z</DateUtc></StartTime><FrequencyChanges><FrequencyChange><Frequency dt:dt="r8">2793160000</Frequency><Timestamp dt:dt="r8">4.36548115349432E+15</Timestamp><Current dt:dt="r8">0</Current><DateUtc dt:dt="string">2016-07-15T18:13:29Z</DateUtc></FrequencyChange></FrequencyChanges></Clock>\n	TMA Blocker Split Nostril Olfactometer_Pilot 2-43-1	74.911	1.0.0.1473	1	0		-999999	12529	5420841	0	q	632067	6052908	-347032282	2.0.10.242	2.0.10.242	07-15-2016	7/15/2016 6:13:29 PM	14:13:29	2.0.10.147	18	GREEN	NULL	NULL	TestProcA	NULL	Train1	NULL	NULL	NULL	NULL	NULL	NULL	NULL	NULL	NULL	NULL	NULL	NULL	Yes	1	2	2	NULL	NULL	NULL	2	NULL	Green	Green	526	NULL	72	24	NULL	NULL	NULL	NULL	training	Strength of the Odor (How green is it?)	NULL	NULL	NULL	NULL	NULL	NULL	NULL	NULL	NULL	NULL	NULL	NULL	NULL	NULL	NULL	NULL	TrainList	2	2	4	NULL	NULL	NULL	NULL	NULL	NULL	NULL	NULL	NULL	1	NULL	NULL	NULL	NULL	NULL	NULL	Green	NULL	NULL	NULL	NULL	NULL	NULL	NULL	NULL	NULL	NULL	NULL	NULL	1	9	9	PrepareProc	Strength of the Odor (How green is it?)	Prepare	NULL	NULL	NULL	NULL	NULL	NULL	NULL	NULL	NULL
TMA Blocker Split Nostril Olfactometer_Pilot 2	43	1	<?xml version="1.0"?>\n<Clock xmlns:dt="urn:schemas-microsoft-com:datatypes"><Description dt:dt="string">E-Prime Primary Realtime Clock</Description><StartTime><Timestamp dt:dt="int">0</Timestamp><DateUtc dt:dt="string">2016-07-15T18:13:29Z</DateUtc></StartTime><FrequencyChanges><FrequencyChange><Frequency dt:dt="r8">2793160000</Frequency><Timestamp dt:dt="r8">4.36548115349432E+15</Timestamp><Current dt:dt="r8">0</Current><DateUtc dt:dt="string">2016-07-15T18:13:29Z</DateUtc></FrequencyChange></FrequencyChanges></Clock>\n	TMA Blocker Split Nostril Olfactometer_Pilot 2-43-1	74.911	1.0.0.1473	1	0		-999999	12529	5420841	0	q	632067	6052908	-347032282	2.0.10.242	2.0.10.242	07-15-2016	7/15/2016 6:13:29 PM	14:13:29	2.0.10.147	18	GREEN	NULL	NULL	TestProcA	NULL	Train1	NULL	NULL	NULL	NULL	NULL	NULL	NULL	NULL	NULL	NULL	NULL	NULL	Yes	1	2	2	NULL	NULL	NULL	3	2	NULL	Green	555	NULL	3	24	Fishy	NULL	NULL	NULL	Quiz	How strong is the odor?	1	2	5	NULL	NULL	NULL	0	2	-999999	39	2607078	0	1	8218	2615296	NULL	QuizList	NULL	NULL	NULL	NULL	NULL	NULL	NULL	NULL	NULL	NULL	NULL	NULL	1	NULL	2	NULL	NULL	NULL	NULL	Green	NULL	NULL	NULL	NULL	NULL	NULL	NULL	NULL	NULL	NULL	NULL	NULL	1	10	10	PrepareProc	How strong is the odor?	Prepare	NULL	NULL	NULL	NULL	NULL	NULL	NULL	NULL	NULL
TMA Blocker Split Nostril Olfactometer_Pilot 2	43	1	<?xml version="1.0"?>\n<Clock xmlns:dt="urn:schemas-microsoft-com:datatypes"><Description dt:dt="string">E-Prime Primary Realtime Clock</Description><StartTime><Timestamp dt:dt="int">0</Timestamp><DateUtc dt:dt="string">2016-07-15T18:13:29Z</DateUtc></StartTime><FrequencyChanges><FrequencyChange><Frequency dt:dt="r8">2793160000</Frequency><Timestamp dt:dt="r8">4.36548115349432E+15</Timestamp><Current dt:dt="r8">0</Current><DateUtc dt:dt="string">2016-07-15T18:13:29Z</DateUtc></FrequencyChange></FrequencyChanges></Clock>\n	TMA Blocker Split Nostril Olfactometer_Pilot 2-43-1	74.911	1.0.0.1473	1	0		-999999	12529	5420841	0	q	632067	6052908	-347032282	2.0.10.242	2.0.10.242	07-15-2016	7/15/2016 6:13:29 PM	14:13:29	2.0.10.147	18	GREEN	NULL	NULL	TestProcA	NULL	Train1	NULL	NULL	NULL	NULL	NULL	NULL	NULL	NULL	NULL	NULL	NULL	NULL	Yes	1	2	2	NULL	NULL	NULL	4	2	NULL	Green	511	NULL	66	9	Fishy	NULL	NULL	NULL	Quiz	How strong is the odor?	4	2	6	NULL	NULL	NULL	1	2	-999999	39	2669472	0	2	3094	2672566	NULL	QuizList	NULL	NULL	NULL	NULL	NULL	NULL	NULL	NULL	NULL	NULL	NULL	NULL	1	NULL	2	NULL	NULL	NULL	NULL	Green	NULL	NULL	NULL	NULL	NULL	NULL	NULL	NULL	NULL	NULL	NULL	NULL	1	11	11	PrepareProc	How strong is the odor?	Prepare	NULL	NULL	NULL	NULL	NULL	NULL	NULL	NULL	NULL
TMA Blocker Split Nostril Olfactometer_Pilot 2	43	1	<?xml version="1.0"?>\n<Clock xmlns:dt="urn:schemas-microsoft-com:datatypes"><Description dt:dt="string">E-Prime Primary Realtime Clock</Description><StartTime><Timestamp dt:dt="int">0</Timestamp><DateUtc dt:dt="string">2016-07-15T18:13:29Z</DateUtc></StartTime><FrequencyChanges><FrequencyChange><Frequency dt:dt="r8">2793160000</Frequency><Timestamp dt:dt="r8">4.36548115349432E+15</Timestamp><Current dt:dt="r8">0</Current><DateUtc dt:dt="string">2016-07-15T18:13:29Z</DateUtc></FrequencyChange></FrequencyChanges></Clock>\n	TMA Blocker Split Nostril Olfactometer_Pilot 2-43-1	74.911	1.0.0.1473	1	0		-999999	12529	5420841	0	q	632067	6052908	-347032282	2.0.10.242	2.0.10.242	07-15-2016	7/15/2016 6:13:29 PM	14:13:29	2.0.10.147	18	GREEN	NULL	NULL	TestProcA	NULL	Train1	NULL	NULL	NULL	NULL	NULL	NULL	NULL	NULL	NULL	NULL	NULL	NULL	Yes	1	2	2	NULL	NULL	NULL	5	1	NULL	Green	530	NULL	66	48	Green	NULL	NULL	NULL	Quiz	How strong is the odor?	3	2	7	NULL	NULL	NULL	0	1	-999999	39	2727461	0	2	4200	2731661	NULL	QuizList	NULL	NULL	NULL	NULL	NULL	NULL	NULL	NULL	NULL	NULL	NULL	NULL	1	NULL	1	NULL	NULL	NULL	NULL	Green	NULL	NULL	NULL	NULL	NULL	NULL	NULL	NULL	NULL	NULL	NULL	NULL	1	12	12	PrepareProc	How strong is the odor?	Prepare	NULL	NULL	NULL	NULL	NULL	NULL	NULL	NULL	NULL
TMA Blocker Split Nostril Olfactometer_Pilot 2	43	1	<?xml version="1.0"?>\n<Clock xmlns:dt="urn:schemas-microsoft-com:datatypes"><Description dt:dt="string">E-Prime Primary Realtime Clock</Description><StartTime><Timestamp dt:dt="int">0</Timestamp><DateUtc dt:dt="string">2016-07-15T18:13:29Z</DateUtc></StartTime><FrequencyChanges><FrequencyChange><Frequency dt:dt="r8">2793160000</Frequency><Timestamp dt:dt="r8">4.36548115349432E+15</Timestamp><Current dt:dt="r8">0</Current><DateUtc dt:dt="string">2016-07-15T18:13:29Z</DateUtc></FrequencyChange></FrequencyChanges></Clock>\n	TMA Blocker Split Nostril Olfactometer_Pilot 2-43-1	74.911	1.0.0.1473	1	0		-999999	12529	5420841	0	q	632067	6052908	-347032282	2.0.10.242	2.0.10.242	07-15-2016	7/15/2016 6:13:29 PM	14:13:29	2.0.10.147	18	GREEN	NULL	NULL	TestProcA	NULL	Train1	NULL	NULL	NULL	NULL	NULL	NULL	NULL	NULL	NULL	NULL	NULL	NULL	Yes	1	2	2	NULL	NULL	NULL	6	1	NULL	Green	550	NULL	72	24	Green	NULL	NULL	NULL	Quiz	How strong is the odor?	2	2	8	NULL	NULL	NULL	0	1	-999999	39	2785209	0	2	5218	2790427	NULL	QuizList	NULL	NULL	NULL	NULL	NULL	NULL	NULL	NULL	NULL	NULL	NULL	NULL	1	NULL	1	NULL	NULL	NULL	NULL	Green	NULL	NULL	NULL	NULL	NULL	NULL	NULL	NULL	NULL	NULL	NULL	NULL	1	13	13	PrepareProc	How strong is the odor?	Prepare	NULL	NULL	NULL	NULL	NULL	NULL	NULL	NULL	NULL
TMA Blocker Split Nostril Olfactometer_Pilot 2	43	1	<?xml version="1.0"?>\n<Clock xmlns:dt="urn:schemas-microsoft-com:datatypes"><Description dt:dt="string">E-Prime Primary Realtime Clock</Description><StartTime><Timestamp dt:dt="int">0</Timestamp><DateUtc dt:dt="string">2016-07-15T18:13:29Z</DateUtc></StartTime><FrequencyChanges><FrequencyChange><Frequency dt:dt="r8">2793160000</Frequency><Timestamp dt:dt="r8">4.36548115349432E+15</Timestamp><Current dt:dt="r8">0</Current><DateUtc dt:dt="string">2016-07-15T18:13:29Z</DateUtc></FrequencyChange></FrequencyChanges></Clock>\n	TMA Blocker Split Nostril Olfactometer_Pilot 2-43-1	74.911	1.0.0.1473	1	0		-999999	12529	5420841	0	q	632067	6052908	-347032282	2.0.10.242	2.0.10.242	07-15-2016	7/15/2016 6:13:29 PM	14:13:29	2.0.10.147	19	GREEN	NULL	NULL	TestProcA	NULL	Train1	NULL	NULL	NULL	NULL	NULL	NULL	NULL	NULL	NULL	NULL	NULL	NULL	Yes	1	3	3	NULL	NULL	NULL	1	NULL	Fishy	Green	502	NULL	3	24	NULL	NULL	NULL	NULL	training	Strength of the Odor (How fishy is it?)	NULL	NULL	NULL	NULL	NULL	NULL	NULL	NULL	NULL	NULL	NULL	NULL	NULL	NULL	NULL	NULL	TrainList	1	3	5	NULL	NULL	NULL	NULL	NULL	NULL	NULL	NULL	NULL	1	NULL	NULL	NULL	NULL	NULL	NULL	Green	NULL	NULL	NULL	NULL	NULL	NULL	NULL	NULL	NULL	NULL	NULL	NULL	1	14	14	PrepareProc	Strength of the Odor (How fishy is it?)	Prepare	NULL	NULL	NULL	NULL	NULL	NULL	NULL	NULL	NULL
TMA Blocker Split Nostril Olfactometer_Pilot 2	43	1	<?xml version="1.0"?>\n<Clock xmlns:dt="urn:schemas-microsoft-com:datatypes"><Description dt:dt="string">E-Prime Primary Realtime Clock</Description><StartTime><Timestamp dt:dt="int">0</Timestamp><DateUtc dt:dt="string">2016-07-15T18:13:29Z</DateUtc></StartTime><FrequencyChanges><FrequencyChange><Frequency dt:dt="r8">2793160000</Frequency><Timestamp dt:dt="r8">4.36548115349432E+15</Timestamp><Current dt:dt="r8">0</Current><DateUtc dt:dt="string">2016-07-15T18:13:29Z</DateUtc></FrequencyChange></FrequencyChanges></Clock>\n	TMA Blocker Split Nostril Olfactometer_Pilot 2-43-1	74.911	1.0.0.1473	1	0		-999999	12529	5420841	0	q	632067	6052908	-347032282	2.0.10.242	2.0.10.242	07-15-2016	7/15/2016 6:13:29 PM	14:13:29	2.0.10.147	19	GREEN	NULL	NULL	TestProcA	NULL	Train1	NULL	NULL	NULL	NULL	NULL	NULL	NULL	NULL	NULL	NULL	NULL	NULL	Yes	1	3	3	NULL	NULL	NULL	2	NULL	Green	Green	516	NULL	72	24	NULL	NULL	NULL	NULL	training	Strength of the Odor (How green is it?)	NULL	NULL	NULL	NULL	NULL	NULL	NULL	NULL	NULL	NULL	NULL	NULL	NULL	NULL	NULL	NULL	TrainList	2	3	6	NULL	NULL	NULL	NULL	NULL	NULL	NULL	NULL	NULL	1	NULL	NULL	NULL	NULL	NULL	NULL	Green	NULL	NULL	NULL	NULL	NULL	NULL	NULL	NULL	NULL	NULL	NULL	NULL	1	15	15	PrepareProc	Strength of the Odor (How green is it?)	Prepare	NULL	NULL	NULL	NULL	NULL	NULL	NULL	NULL	NULL
TMA Blocker Split Nostril Olfactometer_Pilot 2	43	1	<?xml version="1.0"?>\n<Clock xmlns:dt="urn:schemas-microsoft-com:datatypes"><Description dt:dt="string">E-Prime Primary Realtime Clock</Description><StartTime><Timestamp dt:dt="int">0</Timestamp><DateUtc dt:dt="string">2016-07-15T18:13:29Z</DateUtc></StartTime><FrequencyChanges><FrequencyChange><Frequency dt:dt="r8">2793160000</Frequency><Timestamp dt:dt="r8">4.36548115349432E+15</Timestamp><Current dt:dt="r8">0</Current><DateUtc dt:dt="string">2016-07-15T18:13:29Z</DateUtc></FrequencyChange></FrequencyChanges></Clock>\n	TMA Blocker Split Nostril Olfactometer_Pilot 2-43-1	74.911	1.0.0.1473	1	0		-999999	12529	5420841	0	q	632067	6052908	-347032282	2.0.10.242	2.0.10.242	07-15-2016	7/15/2016 6:13:29 PM	14:13:29	2.0.10.147	19	GREEN	NULL	NULL	TestProcA	NULL	Train1	NULL	NULL	NULL	NULL	NULL	NULL	NULL	NULL	NULL	NULL	NULL	NULL	Yes	1	3	3	NULL	NULL	NULL	3	2	NULL	Green	546	NULL	3	24	Fishy	NULL	NULL	NULL	Quiz	How strong is the odor?	1	3	9	NULL	NULL	NULL	1	2	-999999	39	3050028	0	2	2847	3052875	NULL	QuizList	NULL	NULL	NULL	NULL	NULL	NULL	NULL	NULL	NULL	NULL	NULL	NULL	1	NULL	2	NULL	NULL	NULL	NULL	Green	NULL	NULL	NULL	NULL	NULL	NULL	NULL	NULL	NULL	NULL	NULL	NULL	1	16	16	PrepareProc	How strong is the odor?	Prepare	NULL	NULL	NULL	NULL	NULL	NULL	NULL	NULL	NULL
TMA Blocker Split Nostril Olfactometer_Pilot 2	43	1	<?xml version="1.0"?>\n<Clock xmlns:dt="urn:schemas-microsoft-com:datatypes"><Description dt:dt="string">E-Prime Primary Realtime Clock</Description><StartTime><Timestamp dt:dt="int">0</Timestamp><DateUtc dt:dt="string">2016-07-15T18:13:29Z</DateUtc></StartTime><FrequencyChanges><FrequencyChange><Frequency dt:dt="r8">2793160000</Frequency><Timestamp dt:dt="r8">4.36548115349432E+15</Timestamp><Current dt:dt="r8">0</Current><DateUtc dt:dt="string">2016-07-15T18:13:29Z</DateUtc></FrequencyChange></FrequencyChanges></Clock>\n	TMA Blocker Split Nostril Olfactometer_Pilot 2-43-1	74.911	1.0.0.1473	1	0		-999999	12529	5420841	0	q	632067	6052908	-347032282	2.0.10.242	2.0.10.242	07-15-2016	7/15/2016 6:13:29 PM	14:13:29	2.0.10.147	19	GREEN	NULL	NULL	TestProcA	NULL	Train1	NULL	NULL	NULL	NULL	NULL	NULL	NULL	NULL	NULL	NULL	NULL	NULL	Yes	1	3	3	NULL	NULL	NULL	4	2	NULL	Green	566	NULL	66	9	Fishy	NULL	NULL	NULL	Quiz	How strong is the odor?	4	3	10	NULL	NULL	NULL	0	2	-999999	39	3106174	0	1	1867	3108041	NULL	QuizList	NULL	NULL	NULL	NULL	NULL	NULL	NULL	NULL	NULL	NULL	NULL	NULL	1	NULL	2	NULL	NULL	NULL	NULL	Green	NULL	NULL	NULL	NULL	NULL	NULL	NULL	NULL	NULL	NULL	NULL	NULL	1	17	17	PrepareProc	How strong is the odor?	Prepare	NULL	NULL	NULL	NULL	NULL	NULL	NULL	NULL	NULL
TMA Blocker Split Nostril Olfactometer_Pilot 2	43	1	<?xml version="1.0"?>\n<Clock xmlns:dt="urn:schemas-microsoft-com:datatypes"><Description dt:dt="string">E-Prime Primary Realtime Clock</Description><StartTime><Timestamp dt:dt="int">0</Timestamp><DateUtc dt:dt="string">2016-07-15T18:13:29Z</DateUtc></StartTime><FrequencyChanges><FrequencyChange><Frequency dt:dt="r8">2793160000</Frequency><Timestamp dt:dt="r8">4.36548115349432E+15</Timestamp><Current dt:dt="r8">0</Current><DateUtc dt:dt="string">2016-07-15T18:13:29Z</DateUtc></FrequencyChange></FrequencyChanges></Clock>\n	TMA Blocker Split Nostril Olfactometer_Pilot 2-43-1	74.911	1.0.0.1473	1	0		-999999	12529	5420841	0	q	632067	6052908	-347032282	2.0.10.242	2.0.10.242	07-15-2016	7/15/2016 6:13:29 PM	14:13:29	2.0.10.147	19	GREEN	NULL	NULL	TestProcA	NULL	Train1	NULL	NULL	NULL	NULL	NULL	NULL	NULL	NULL	NULL	NULL	NULL	NULL	Yes	1	3	3	NULL	NULL	NULL	5	1	NULL	Green	551	NULL	72	24	Green	NULL	NULL	NULL	Quiz	How strong is the odor?	2	3	11	NULL	NULL	NULL	1	1	-999999	39	3159771	0	1	1948	3161719	NULL	QuizList	NULL	NULL	NULL	NULL	NULL	NULL	NULL	NULL	NULL	NULL	NULL	NULL	1	NULL	1	NULL	NULL	NULL	NULL	Green	NULL	NULL	NULL	NULL	NULL	NULL	NULL	NULL	NULL	NULL	NULL	NULL	1	18	18	PrepareProc	How strong is the odor?	Prepare	NULL	NULL	NULL	NULL	NULL	NULL	NULL	NULL	NULL
TMA Blocker Split Nostril Olfactometer_Pilot 2	43	1	<?xml version="1.0"?>\n<Clock xmlns:dt="urn:schemas-microsoft-com:datatypes"><Description dt:dt="string">E-Prime Primary Realtime Clock</Description><StartTime><Timestamp dt:dt="int">0</Timestamp><DateUtc dt:dt="string">2016-07-15T18:13:29Z</DateUtc></StartTime><FrequencyChanges><FrequencyChange><Frequency dt:dt="r8">2793160000</Frequency><Timestamp dt:dt="r8">4.36548115349432E+15</Timestamp><Current dt:dt="r8">0</Current><DateUtc dt:dt="string">2016-07-15T18:13:29Z</DateUtc></FrequencyChange></FrequencyChanges></Clock>\n	TMA Blocker Split Nostril Olfactometer_Pilot 2-43-1	74.911	1.0.0.1473	1	0		-999999	12529	5420841	0	q	632067	6052908	-347032282	2.0.10.242	2.0.10.242	07-15-2016	7/15/2016 6:13:29 PM	14:13:29	2.0.10.147	19	GREEN	NULL	NULL	TestProcA	NULL	Train1	NULL	NULL	NULL	NULL	NULL	NULL	NULL	NULL	NULL	NULL	NULL	NULL	Yes	1	3	3	NULL	NULL	NULL	6	1	NULL	Green	545	NULL	66	48	Green	NULL	NULL	NULL	Quiz	How strong is the odor?	3	3	12	NULL	NULL	NULL	1	1	-999999	39	3209523	0	1	2579	3212102	NULL	QuizList	NULL	NULL	NULL	NULL	NULL	NULL	NULL	NULL	NULL	NULL	NULL	NULL	1	NULL	1	NULL	NULL	NULL	NULL	Green	NULL	NULL	NULL	NULL	NULL	NULL	NULL	NULL	NULL	NULL	NULL	NULL	1	19	19	PrepareProc	How strong is the odor?	Prepare	NULL	NULL	NULL	NULL	NULL	NULL	NULL	NULL	NULL
TMA Blocker Split Nostril Olfactometer_Pilot 2	43	1	<?xml version="1.0"?>\n<Clock xmlns:dt="urn:schemas-microsoft-com:datatypes"><Description dt:dt="string">E-Prime Primary Realtime Clock</Description><StartTime><Timestamp dt:dt="int">0</Timestamp><DateUtc dt:dt="string">2016-07-15T18:13:29Z</DateUtc></StartTime><FrequencyChanges><FrequencyChange><Frequency dt:dt="r8">2793160000</Frequency><Timestamp dt:dt="r8">4.36548115349432E+15</Timestamp><Current dt:dt="r8">0</Current><DateUtc dt:dt="string">2016-07-15T18:13:29Z</DateUtc></FrequencyChange></FrequencyChanges></Clock>\n	TMA Blocker Split Nostril Olfactometer_Pilot 2-43-1	74.911	1.0.0.1473	1	0		-999999	12529	5420841	0	q	632067	6052908	-347032282	2.0.10.242	2.0.10.242	07-15-2016	7/15/2016 6:13:29 PM	14:13:29	2.0.10.147	20	GREEN	NULL	NULL	BlockProcA	NULL	Test1	NULL	NULL	NULL	NULL	NULL	NULL	1	1	1	NULL	NULL	NULL	No	NULL	NULL	NULL	NULL	NULL	NULL	1	NULL	NULL	NULL	NULL	Blank	66	24	NULL	NULL	NULL	NULL	TrialProc	NULL	NULL	NULL	NULL	NULL	NULL	NULL	NULL	NULL	NULL	NULL	NULL	NULL	NULL	NULL	NULL	Blank	TrialList	NULL	NULL	NULL	NULL	NULL	NULL	9	1	1	NULL	NULL	NULL	1	NULL	NULL	NULL	NULL	NULL	NULL	NULL	NULL	NULL	NULL	NULL	NULL	NULL	NULL	NULL	NULL	NULL	NULL	NULL	1	20	20	PrepareProc	NULL	Prepare	NULL	NULL	NULL	NULL	NULL	NULL	NULL	NULL	NULL
TMA Blocker Split Nostril Olfactometer_Pilot 2	43	1	<?xml version="1.0"?>\n<Clock xmlns:dt="urn:schemas-microsoft-com:datatypes"><Description dt:dt="string">E-Prime Primary Realtime Clock</Description><StartTime><Timestamp dt:dt="int">0</Timestamp><DateUtc dt:dt="string">2016-07-15T18:13:29Z</DateUtc></StartTime><FrequencyChanges><FrequencyChange><Frequency dt:dt="r8">2793160000</Frequency><Timestamp dt:dt="r8">4.36548115349432E+15</Timestamp><Current dt:dt="r8">0</Current><DateUtc dt:dt="string">2016-07-15T18:13:29Z</DateUtc></FrequencyChange></FrequencyChanges></Clock>\n	TMA Blocker Split Nostril Olfactometer_Pilot 2-43-1	74.911	1.0.0.1473	1	0		-999999	12529	5420841	0	q	632067	6052908	-347032282	2.0.10.242	2.0.10.242	07-15-2016	7/15/2016 6:13:29 PM	14:13:29	2.0.10.147	20	GREEN	NULL	NULL	BlockProcA	NULL	Test1	NULL	NULL	NULL	NULL	NULL	NULL	1	1	1	NULL	NULL	NULL	No	NULL	NULL	NULL	NULL	NULL	NULL	1	NULL	NULL	NULL	NULL	Blank	66	24	NULL	NULL	NULL	NULL	TrialProc	NULL	NULL	NULL	NULL	NULL	NULL	NULL	NULL	NULL	NULL	NULL	NULL	NULL	NULL	NULL	NULL	Blank	TrialList	NULL	NULL	NULL	NULL	NULL	NULL	9	1	1	NULL	NULL	NULL	2	NULL	NULL	1	1	1	NULL	Green	545	564	NULL	NULL	NULL	NULL	NULL	NULL	NULL	NULL	NULL	1	NULL	NULL	NULL	ExperimentProc	How intense is the odor?	Experiment	NULL	NULL	NULL	NULL	NULL	NULL	NULL	NULL	?
TMA Blocker Split Nostril Olfactometer_Pilot 2	43	1	<?xml version="1.0"?>\n<Clock xmlns:dt="urn:schemas-microsoft-com:datatypes"><Description dt:dt="string">E-Prime Primary Realtime Clock</Description><StartTime><Timestamp dt:dt="int">0</Timestamp><DateUtc dt:dt="string">2016-07-15T18:13:29Z</DateUtc></StartTime><FrequencyChanges><FrequencyChange><Frequency dt:dt="r8">2793160000</Frequency><Timestamp dt:dt="r8">4.36548115349432E+15</Timestamp><Current dt:dt="r8">0</Current><DateUtc dt:dt="string">2016-07-15T18:13:29Z</DateUtc></FrequencyChange></FrequencyChanges></Clock>\n	TMA Blocker Split Nostril Olfactometer_Pilot 2-43-1	74.911	1.0.0.1473	1	0		-999999	12529	5420841	0	q	632067	6052908	-347032282	2.0.10.242	2.0.10.242	07-15-2016	7/15/2016 6:13:29 PM	14:13:29	2.0.10.147	20	GREEN	NULL	NULL	BlockProcA	NULL	Test1	NULL	NULL	NULL	NULL	NULL	NULL	1	1	1	NULL	NULL	NULL	No	NULL	NULL	NULL	NULL	NULL	NULL	1	NULL	NULL	NULL	NULL	Blank	66	24	NULL	NULL	NULL	NULL	TrialProc	NULL	NULL	NULL	NULL	NULL	NULL	NULL	NULL	NULL	NULL	NULL	NULL	NULL	NULL	NULL	NULL	Blank	TrialList	NULL	NULL	NULL	NULL	NULL	NULL	9	1	1	NULL	NULL	NULL	3	NULL	2	NULL	NULL	NULL	NULL	NULL	NULL	NULL	1	2	-999999	13	3380271	0	2	3906	3384177	NULL	NULL	NULL	NULL	SongTrial	NULL	SoundList	NULL	NULL	15	1	1	NULL	NULL	NULL	NULL
TMA Blocker Split Nostril Olfactometer_Pilot 2	43	1	<?xml version="1.0"?>\n<Clock xmlns:dt="urn:schemas-microsoft-com:datatypes"><Description dt:dt="string">E-Prime Primary Realtime Clock</Description><StartTime><Timestamp dt:dt="int">0</Timestamp><DateUtc dt:dt="string">2016-07-15T18:13:29Z</DateUtc></StartTime><FrequencyChanges><FrequencyChange><Frequency dt:dt="r8">2793160000</Frequency><Timestamp dt:dt="r8">4.36548115349432E+15</Timestamp><Current dt:dt="r8">0</Current><DateUtc dt:dt="string">2016-07-15T18:13:29Z</DateUtc></FrequencyChange></FrequencyChanges></Clock>\n	TMA Blocker Split Nostril Olfactometer_Pilot 2-43-1	74.911	1.0.0.1473	1	0		-999999	12529	5420841	0	q	632067	6052908	-347032282	2.0.10.242	2.0.10.242	07-15-2016	7/15/2016 6:13:29 PM	14:13:29	2.0.10.147	20	GREEN	NULL	NULL	BlockProcA	NULL	Test1	NULL	NULL	NULL	NULL	NULL	NULL	1	1	1	NULL	NULL	NULL	No	NULL	NULL	NULL	NULL	NULL	NULL	2	NULL	NULL	NULL	NULL	TMA	3	24	NULL	NULL	NULL	NULL	TrialProc	NULL	NULL	NULL	NULL	NULL	NULL	NULL	NULL	NULL	NULL	NULL	NULL	NULL	NULL	NULL	NULL	Blank	TrialList	NULL	NULL	NULL	NULL	NULL	NULL	1	1	2	NULL	NULL	NULL	1	NULL	NULL	NULL	NULL	NULL	NULL	NULL	NULL	NULL	NULL	NULL	NULL	NULL	NULL	NULL	NULL	NULL	NULL	NULL	1	21	21	PrepareProc	NULL	Prepare	NULL	NULL	NULL	NULL	NULL	NULL	NULL	NULL	NULL
TMA Blocker Split Nostril Olfactometer_Pilot 2	43	1	<?xml version="1.0"?>\n<Clock xmlns:dt="urn:schemas-microsoft-com:datatypes"><Description dt:dt="string">E-Prime Primary Realtime Clock</Description><StartTime><Timestamp dt:dt="int">0</Timestamp><DateUtc dt:dt="string">2016-07-15T18:13:29Z</DateUtc></StartTime><FrequencyChanges><FrequencyChange><Frequency dt:dt="r8">2793160000</Frequency><Timestamp dt:dt="r8">4.36548115349432E+15</Timestamp><Current dt:dt="r8">0</Current><DateUtc dt:dt="string">2016-07-15T18:13:29Z</DateUtc></FrequencyChange></FrequencyChanges></Clock>\n	TMA Blocker Split Nostril Olfactometer_Pilot 2-43-1	74.911	1.0.0.1473	1	0		-999999	12529	5420841	0	q	632067	6052908	-347032282	2.0.10.242	2.0.10.242	07-15-2016	7/15/2016 6:13:29 PM	14:13:29	2.0.10.147	20	GREEN	NULL	NULL	BlockProcA	NULL	Test1	NULL	NULL	NULL	NULL	NULL	NULL	1	1	1	NULL	NULL	NULL	No	NULL	NULL	NULL	NULL	NULL	NULL	2	NULL	NULL	NULL	NULL	TMA	3	24	NULL	NULL	NULL	NULL	TrialProc	NULL	NULL	NULL	NULL	NULL	NULL	NULL	NULL	NULL	NULL	NULL	NULL	NULL	NULL	NULL	NULL	Blank	TrialList	NULL	NULL	NULL	NULL	NULL	NULL	1	1	2	NULL	NULL	NULL	2	NULL	NULL	1	2	2	NULL	Green	554	530	NULL	NULL	NULL	NULL	NULL	NULL	NULL	NULL	NULL	1	NULL	NULL	NULL	ExperimentProc	How intense is the odor?	Experiment	NULL	NULL	NULL	NULL	NULL	NULL	NULL	NULL	?
TMA Blocker Split Nostril Olfactometer_Pilot 2	43	1	<?xml version="1.0"?>\n<Clock xmlns:dt="urn:schemas-microsoft-com:datatypes"><Description dt:dt="string">E-Prime Primary Realtime Clock</Description><StartTime><Timestamp dt:dt="int">0</Timestamp><DateUtc dt:dt="string">2016-07-15T18:13:29Z</DateUtc></StartTime><FrequencyChanges><FrequencyChange><Frequency dt:dt="r8">2793160000</Frequency><Timestamp dt:dt="r8">4.36548115349432E+15</Timestamp><Current dt:dt="r8">0</Current><DateUtc dt:dt="string">2016-07-15T18:13:29Z</DateUtc></FrequencyChange></FrequencyChanges></Clock>\n	TMA Blocker Split Nostril Olfactometer_Pilot 2-43-1	74.911	1.0.0.1473	1	0		-999999	12529	5420841	0	q	632067	6052908	-347032282	2.0.10.242	2.0.10.242	07-15-2016	7/15/2016 6:13:29 PM	14:13:29	2.0.10.147	20	GREEN	NULL	NULL	BlockProcA	NULL	Test1	NULL	NULL	NULL	NULL	NULL	NULL	1	1	1	NULL	NULL	NULL	No	NULL	NULL	NULL	NULL	NULL	NULL	2	NULL	NULL	NULL	NULL	TMA	3	24	NULL	NULL	NULL	NULL	TrialProc	NULL	NULL	NULL	NULL	NULL	NULL	NULL	NULL	NULL	NULL	NULL	NULL	NULL	NULL	NULL	NULL	Blank	TrialList	NULL	NULL	NULL	NULL	NULL	NULL	1	1	2	NULL	NULL	NULL	3	NULL	1	NULL	NULL	NULL	NULL	NULL	NULL	NULL	0	1	-999999	13	3433000	0	2	1448	3434448	NULL	NULL	NULL	NULL	SongTrial	NULL	SoundList	NULL	NULL	16	1	2	NULL	NULL	NULL	NULL
TMA Blocker Split Nostril Olfactometer_Pilot 2	43	1	<?xml version="1.0"?>\n<Clock xmlns:dt="urn:schemas-microsoft-com:datatypes"><Description dt:dt="string">E-Prime Primary Realtime Clock</Description><StartTime><Timestamp dt:dt="int">0</Timestamp><DateUtc dt:dt="string">2016-07-15T18:13:29Z</DateUtc></StartTime><FrequencyChanges><FrequencyChange><Frequency dt:dt="r8">2793160000</Frequency><Timestamp dt:dt="r8">4.36548115349432E+15</Timestamp><Current dt:dt="r8">0</Current><DateUtc dt:dt="string">2016-07-15T18:13:29Z</DateUtc></FrequencyChange></FrequencyChanges></Clock>\n	TMA Blocker Split Nostril Olfactometer_Pilot 2-43-1	74.911	1.0.0.1473	1	0		-999999	12529	5420841	0	q	632067	6052908	-347032282	2.0.10.242	2.0.10.242	07-15-2016	7/15/2016 6:13:29 PM	14:13:29	2.0.10.147	20	GREEN	NULL	NULL	BlockProcA	NULL	Test1	NULL	NULL	NULL	NULL	NULL	NULL	1	1	1	NULL	NULL	NULL	No	NULL	NULL	NULL	NULL	NULL	NULL	3	NULL	NULL	NULL	NULL	Nonenol	72	24	NULL	NULL	NULL	NULL	TrialProc	NULL	NULL	NULL	NULL	NULL	NULL	NULL	NULL	NULL	NULL	NULL	NULL	NULL	NULL	NULL	NULL	Blank	TrialList	NULL	NULL	NULL	NULL	NULL	NULL	3	1	3	NULL	NULL	NULL	1	NULL	NULL	NULL	NULL	NULL	NULL	NULL	NULL	NULL	NULL	NULL	NULL	NULL	NULL	NULL	NULL	NULL	NULL	NULL	1	22	22	PrepareProc	NULL	Prepare	NULL	NULL	NULL	NULL	NULL	NULL	NULL	NULL	NULL
TMA Blocker Split Nostril Olfactometer_Pilot 2	43	1	<?xml version="1.0"?>\n<Clock xmlns:dt="urn:schemas-microsoft-com:datatypes"><Description dt:dt="string">E-Prime Primary Realtime Clock</Description><StartTime><Timestamp dt:dt="int">0</Timestamp><DateUtc dt:dt="string">2016-07-15T18:13:29Z</DateUtc></StartTime><FrequencyChanges><FrequencyChange><Frequency dt:dt="r8">2793160000</Frequency><Timestamp dt:dt="r8">4.36548115349432E+15</Timestamp><Current dt:dt="r8">0</Current><DateUtc dt:dt="string">2016-07-15T18:13:29Z</DateUtc></FrequencyChange></FrequencyChanges></Clock>\n	TMA Blocker Split Nostril Olfactometer_Pilot 2-43-1	74.911	1.0.0.1473	1	0		-999999	12529	5420841	0	q	632067	6052908	-347032282	2.0.10.242	2.0.10.242	07-15-2016	7/15/2016 6:13:29 PM	14:13:29	2.0.10.147	20	GREEN	NULL	NULL	BlockProcA	NULL	Test1	NULL	NULL	NULL	NULL	NULL	NULL	1	1	1	NULL	NULL	NULL	No	NULL	NULL	NULL	NULL	NULL	NULL	3	NULL	NULL	NULL	NULL	Nonenol	72	24	NULL	NULL	NULL	NULL	TrialProc	NULL	NULL	NULL	NULL	NULL	NULL	NULL	NULL	NULL	NULL	NULL	NULL	NULL	NULL	NULL	NULL	Blank	TrialList	NULL	NULL	NULL	NULL	NULL	NULL	3	1	3	NULL	NULL	NULL	2	NULL	NULL	1	3	3	NULL	Green	506	551	NULL	NULL	NULL	NULL	NULL	NULL	NULL	NULL	NULL	1	NULL	NULL	NULL	ExperimentProc	How intense is the odor?	Experiment	NULL	NULL	NULL	NULL	NULL	NULL	NULL	NULL	?
TMA Blocker Split Nostril Olfactometer_Pilot 2	43	1	<?xml version="1.0"?>\n<Clock xmlns:dt="urn:schemas-microsoft-com:datatypes"><Description dt:dt="string">E-Prime Primary Realtime Clock</Description><StartTime><Timestamp dt:dt="int">0</Timestamp><DateUtc dt:dt="string">2016-07-15T18:13:29Z</DateUtc></StartTime><FrequencyChanges><FrequencyChange><Frequency dt:dt="r8">2793160000</Frequency><Timestamp dt:dt="r8">4.36548115349432E+15</Timestamp><Current dt:dt="r8">0</Current><DateUtc dt:dt="string">2016-07-15T18:13:29Z</DateUtc></FrequencyChange></FrequencyChanges></Clock>\n	TMA Blocker Split Nostril Olfactometer_Pilot 2-43-1	74.911	1.0.0.1473	1	0		-999999	12529	5420841	0	q	632067	6052908	-347032282	2.0.10.242	2.0.10.242	07-15-2016	7/15/2016 6:13:29 PM	14:13:29	2.0.10.147	20	GREEN	NULL	NULL	BlockProcA	NULL	Test1	NULL	NULL	NULL	NULL	NULL	NULL	1	1	1	NULL	NULL	NULL	No	NULL	NULL	NULL	NULL	NULL	NULL	3	NULL	NULL	NULL	NULL	Nonenol	72	24	NULL	NULL	NULL	NULL	TrialProc	NULL	NULL	NULL	NULL	NULL	NULL	NULL	NULL	NULL	NULL	NULL	NULL	NULL	NULL	NULL	NULL	Blank	TrialList	NULL	NULL	NULL	NULL	NULL	NULL	3	1	3	NULL	NULL	NULL	3	NULL	1	NULL	NULL	NULL	NULL	NULL	NULL	NULL	1	1	-999999	13	3482806	0	1	1496	3484302	NULL	NULL	NULL	NULL	SongTrial	NULL	SoundList	NULL	NULL	7	1	3	NULL	NULL	NULL	NULL
TMA Blocker Split Nostril Olfactometer_Pilot 2	43	1	<?xml version="1.0"?>\n<Clock xmlns:dt="urn:schemas-microsoft-com:datatypes"><Description dt:dt="string">E-Prime Primary Realtime Clock</Description><StartTime><Timestamp dt:dt="int">0</Timestamp><DateUtc dt:dt="string">2016-07-15T18:13:29Z</DateUtc></StartTime><FrequencyChanges><FrequencyChange><Frequency dt:dt="r8">2793160000</Frequency><Timestamp dt:dt="r8">4.36548115349432E+15</Timestamp><Current dt:dt="r8">0</Current><DateUtc dt:dt="string">2016-07-15T18:13:29Z</DateUtc></FrequencyChange></FrequencyChanges></Clock>\n	TMA Blocker Split Nostril Olfactometer_Pilot 2-43-1	74.911	1.0.0.1473	1	0		-999999	12529	5420841	0	q	632067	6052908	-347032282	2.0.10.242	2.0.10.242	07-15-2016	7/15/2016 6:13:29 PM	14:13:29	2.0.10.147	20	GREEN	NULL	NULL	BlockProcA	NULL	Test1	NULL	NULL	NULL	NULL	NULL	NULL	1	1	1	NULL	NULL	NULL	No	NULL	NULL	NULL	NULL	NULL	NULL	4	NULL	NULL	NULL	NULL	Blank	66	33	NULL	NULL	NULL	NULL	TrialProc	NULL	NULL	NULL	NULL	NULL	NULL	NULL	NULL	NULL	NULL	NULL	NULL	NULL	NULL	NULL	NULL	TMA+Nonenol	TrialList	NULL	NULL	NULL	NULL	NULL	NULL	6	1	4	NULL	NULL	NULL	1	NULL	NULL	NULL	NULL	NULL	NULL	NULL	NULL	NULL	NULL	NULL	NULL	NULL	NULL	NULL	NULL	NULL	NULL	NULL	1	23	23	PrepareProc	NULL	Prepare	NULL	NULL	NULL	NULL	NULL	NULL	NULL	NULL	NULL
TMA Blocker Split Nostril Olfactometer_Pilot 2	43	1	<?xml version="1.0"?>\n<Clock xmlns:dt="urn:schemas-microsoft-com:datatypes"><Description dt:dt="string">E-Prime Primary Realtime Clock</Description><StartTime><Timestamp dt:dt="int">0</Timestamp><DateUtc dt:dt="string">2016-07-15T18:13:29Z</DateUtc></StartTime><FrequencyChanges><FrequencyChange><Frequency dt:dt="r8">2793160000</Frequency><Timestamp dt:dt="r8">4.36548115349432E+15</Timestamp><Current dt:dt="r8">0</Current><DateUtc dt:dt="string">2016-07-15T18:13:29Z</DateUtc></FrequencyChange></FrequencyChanges></Clock>\n	TMA Blocker Split Nostril Olfactometer_Pilot 2-43-1	74.911	1.0.0.1473	1	0		-999999	12529	5420841	0	q	632067	6052908	-347032282	2.0.10.242	2.0.10.242	07-15-2016	7/15/2016 6:13:29 PM	14:13:29	2.0.10.147	20	GREEN	NULL	NULL	BlockProcA	NULL	Test1	NULL	NULL	NULL	NULL	NULL	NULL	1	1	1	NULL	NULL	NULL	No	NULL	NULL	NULL	NULL	NULL	NULL	4	NULL	NULL	NULL	NULL	Blank	66	33	NULL	NULL	NULL	NULL	TrialProc	NULL	NULL	NULL	NULL	NULL	NULL	NULL	NULL	NULL	NULL	NULL	NULL	NULL	NULL	NULL	NULL	TMA+Nonenol	TrialList	NULL	NULL	NULL	NULL	NULL	NULL	6	1	4	NULL	NULL	NULL	2	NULL	NULL	1	4	4	NULL	Green	470	574	NULL	NULL	NULL	NULL	NULL	NULL	NULL	NULL	NULL	1	NULL	NULL	NULL	ExperimentProc	How intense is the odor?	Experiment	NULL	NULL	NULL	NULL	NULL	NULL	NULL	NULL	?
TMA Blocker Split Nostril Olfactometer_Pilot 2	43	1	<?xml version="1.0"?>\n<Clock xmlns:dt="urn:schemas-microsoft-com:datatypes"><Description dt:dt="string">E-Prime Primary Realtime Clock</Description><StartTime><Timestamp dt:dt="int">0</Timestamp><DateUtc dt:dt="string">2016-07-15T18:13:29Z</DateUtc></StartTime><FrequencyChanges><FrequencyChange><Frequency dt:dt="r8">2793160000</Frequency><Timestamp dt:dt="r8">4.36548115349432E+15</Timestamp><Current dt:dt="r8">0</Current><DateUtc dt:dt="string">2016-07-15T18:13:29Z</DateUtc></FrequencyChange></FrequencyChanges></Clock>\n	TMA Blocker Split Nostril Olfactometer_Pilot 2-43-1	74.911	1.0.0.1473	1	0		-999999	12529	5420841	0	q	632067	6052908	-347032282	2.0.10.242	2.0.10.242	07-15-2016	7/15/2016 6:13:29 PM	14:13:29	2.0.10.147	20	GREEN	NULL	NULL	BlockProcA	NULL	Test1	NULL	NULL	NULL	NULL	NULL	NULL	1	1	1	NULL	NULL	NULL	No	NULL	NULL	NULL	NULL	NULL	NULL	4	NULL	NULL	NULL	NULL	Blank	66	33	NULL	NULL	NULL	NULL	TrialProc	NULL	NULL	NULL	NULL	NULL	NULL	NULL	NULL	NULL	NULL	NULL	NULL	NULL	NULL	NULL	NULL	TMA+Nonenol	TrialList	NULL	NULL	NULL	NULL	NULL	NULL	6	1	4	NULL	NULL	NULL	3	NULL	1	NULL	NULL	NULL	NULL	NULL	NULL	NULL	1	1	-999999	13	3531957	0	1	1368	3533325	NULL	NULL	NULL	NULL	SongTrial	NULL	SoundList	NULL	NULL	9	1	4	NULL	NULL	NULL	NULL
TMA Blocker Split Nostril Olfactometer_Pilot 2	43	1	<?xml version="1.0"?>\n<Clock xmlns:dt="urn:schemas-microsoft-com:datatypes"><Description dt:dt="string">E-Prime Primary Realtime Clock</Description><StartTime><Timestamp dt:dt="int">0</Timestamp><DateUtc dt:dt="string">2016-07-15T18:13:29Z</DateUtc></StartTime><FrequencyChanges><FrequencyChange><Frequency dt:dt="r8">2793160000</Frequency><Timestamp dt:dt="r8">4.36548115349432E+15</Timestamp><Current dt:dt="r8">0</Current><DateUtc dt:dt="string">2016-07-15T18:13:29Z</DateUtc></FrequencyChange></FrequencyChanges></Clock>\n	TMA Blocker Split Nostril Olfactometer_Pilot 2-43-1	74.911	1.0.0.1473	1	0		-999999	12529	5420841	0	q	632067	6052908	-347032282	2.0.10.242	2.0.10.242	07-15-2016	7/15/2016 6:13:29 PM	14:13:29	2.0.10.147	20	GREEN	NULL	NULL	BlockProcA	NULL	Test1	NULL	NULL	NULL	NULL	NULL	NULL	1	1	1	NULL	NULL	NULL	No	NULL	NULL	NULL	NULL	NULL	NULL	5	NULL	NULL	NULL	NULL	TMA	3	48	NULL	NULL	NULL	NULL	TrialProc	NULL	NULL	NULL	NULL	NULL	NULL	NULL	NULL	NULL	NULL	NULL	NULL	NULL	NULL	NULL	NULL	Nonenol	TrialList	NULL	NULL	NULL	NULL	NULL	NULL	7	1	5	NULL	NULL	NULL	1	NULL	NULL	NULL	NULL	NULL	NULL	NULL	NULL	NULL	NULL	NULL	NULL	NULL	NULL	NULL	NULL	NULL	NULL	NULL	1	24	24	PrepareProc	NULL	Prepare	NULL	NULL	NULL	NULL	NULL	NULL	NULL	NULL	NULL
TMA Blocker Split Nostril Olfactometer_Pilot 2	43	1	<?xml version="1.0"?>\n<Clock xmlns:dt="urn:schemas-microsoft-com:datatypes"><Description dt:dt="string">E-Prime Primary Realtime Clock</Description><StartTime><Timestamp dt:dt="int">0</Timestamp><DateUtc dt:dt="string">2016-07-15T18:13:29Z</DateUtc></StartTime><FrequencyChanges><FrequencyChange><Frequency dt:dt="r8">2793160000</Frequency><Timestamp dt:dt="r8">4.36548115349432E+15</Timestamp><Current dt:dt="r8">0</Current><DateUtc dt:dt="string">2016-07-15T18:13:29Z</DateUtc></FrequencyChange></FrequencyChanges></Clock>\n	TMA Blocker Split Nostril Olfactometer_Pilot 2-43-1	74.911	1.0.0.1473	1	0		-999999	12529	5420841	0	q	632067	6052908	-347032282	2.0.10.242	2.0.10.242	07-15-2016	7/15/2016 6:13:29 PM	14:13:29	2.0.10.147	20	GREEN	NULL	NULL	BlockProcA	NULL	Test1	NULL	NULL	NULL	NULL	NULL	NULL	1	1	1	NULL	NULL	NULL	No	NULL	NULL	NULL	NULL	NULL	NULL	5	NULL	NULL	NULL	NULL	TMA	3	48	NULL	NULL	NULL	NULL	TrialProc	NULL	NULL	NULL	NULL	NULL	NULL	NULL	NULL	NULL	NULL	NULL	NULL	NULL	NULL	NULL	NULL	Nonenol	TrialList	NULL	NULL	NULL	NULL	NULL	NULL	7	1	5	NULL	NULL	NULL	2	NULL	NULL	1	5	5	NULL	Green	534	576	NULL	NULL	NULL	NULL	NULL	NULL	NULL	NULL	NULL	1	NULL	NULL	NULL	ExperimentProc	How intense is the odor?	Experiment	NULL	NULL	NULL	NULL	NULL	NULL	NULL	NULL	?
TMA Blocker Split Nostril Olfactometer_Pilot 2	43	1	<?xml version="1.0"?>\n<Clock xmlns:dt="urn:schemas-microsoft-com:datatypes"><Description dt:dt="string">E-Prime Primary Realtime Clock</Description><StartTime><Timestamp dt:dt="int">0</Timestamp><DateUtc dt:dt="string">2016-07-15T18:13:29Z</DateUtc></StartTime><FrequencyChanges><FrequencyChange><Frequency dt:dt="r8">2793160000</Frequency><Timestamp dt:dt="r8">4.36548115349432E+15</Timestamp><Current dt:dt="r8">0</Current><DateUtc dt:dt="string">2016-07-15T18:13:29Z</DateUtc></FrequencyChange></FrequencyChanges></Clock>\n	TMA Blocker Split Nostril Olfactometer_Pilot 2-43-1	74.911	1.0.0.1473	1	0		-999999	12529	5420841	0	q	632067	6052908	-347032282	2.0.10.242	2.0.10.242	07-15-2016	7/15/2016 6:13:29 PM	14:13:29	2.0.10.147	20	GREEN	NULL	NULL	BlockProcA	NULL	Test1	NULL	NULL	NULL	NULL	NULL	NULL	1	1	1	NULL	NULL	NULL	No	NULL	NULL	NULL	NULL	NULL	NULL	5	NULL	NULL	NULL	NULL	TMA	3	48	NULL	NULL	NULL	NULL	TrialProc	NULL	NULL	NULL	NULL	NULL	NULL	NULL	NULL	NULL	NULL	NULL	NULL	NULL	NULL	NULL	NULL	Nonenol	TrialList	NULL	NULL	NULL	NULL	NULL	NULL	7	1	5	NULL	NULL	NULL	3	NULL	1	NULL	NULL	NULL	NULL	NULL	NULL	NULL	0	1	-999999	13	3579787	0	2	664	3580451	NULL	NULL	NULL	NULL	SongTrial	NULL	SoundList	NULL	NULL	5	1	5	NULL	NULL	NULL	NULL
TMA Blocker Split Nostril Olfactometer_Pilot 2	43	1	<?xml version="1.0"?>\n<Clock xmlns:dt="urn:schemas-microsoft-com:datatypes"><Description dt:dt="string">E-Prime Primary Realtime Clock</Description><StartTime><Timestamp dt:dt="int">0</Timestamp><DateUtc dt:dt="string">2016-07-15T18:13:29Z</DateUtc></StartTime><FrequencyChanges><FrequencyChange><Frequency dt:dt="r8">2793160000</Frequency><Timestamp dt:dt="r8">4.36548115349432E+15</Timestamp><Current dt:dt="r8">0</Current><DateUtc dt:dt="string">2016-07-15T18:13:29Z</DateUtc></FrequencyChange></FrequencyChanges></Clock>\n	TMA Blocker Split Nostril Olfactometer_Pilot 2-43-1	74.911	1.0.0.1473	1	0		-999999	12529	5420841	0	q	632067	6052908	-347032282	2.0.10.242	2.0.10.242	07-15-2016	7/15/2016 6:13:29 PM	14:13:29	2.0.10.147	20	GREEN	NULL	NULL	BlockProcA	NULL	Test1	NULL	NULL	NULL	NULL	NULL	NULL	1	1	1	NULL	NULL	NULL	No	NULL	NULL	NULL	NULL	NULL	NULL	6	NULL	NULL	NULL	NULL	Nonenol	72	9	NULL	NULL	NULL	NULL	TrialProc	NULL	NULL	NULL	NULL	NULL	NULL	NULL	NULL	NULL	NULL	NULL	NULL	NULL	NULL	NULL	NULL	TMA	TrialList	NULL	NULL	NULL	NULL	NULL	NULL	8	1	6	NULL	NULL	NULL	1	NULL	NULL	NULL	NULL	NULL	NULL	NULL	NULL	NULL	NULL	NULL	NULL	NULL	NULL	NULL	NULL	NULL	NULL	NULL	1	25	25	PrepareProc	NULL	Prepare	NULL	NULL	NULL	NULL	NULL	NULL	NULL	NULL	NULL
TMA Blocker Split Nostril Olfactometer_Pilot 2	43	1	<?xml version="1.0"?>\n<Clock xmlns:dt="urn:schemas-microsoft-com:datatypes"><Description dt:dt="string">E-Prime Primary Realtime Clock</Description><StartTime><Timestamp dt:dt="int">0</Timestamp><DateUtc dt:dt="string">2016-07-15T18:13:29Z</DateUtc></StartTime><FrequencyChanges><FrequencyChange><Frequency dt:dt="r8">2793160000</Frequency><Timestamp dt:dt="r8">4.36548115349432E+15</Timestamp><Current dt:dt="r8">0</Current><DateUtc dt:dt="string">2016-07-15T18:13:29Z</DateUtc></FrequencyChange></FrequencyChanges></Clock>\n	TMA Blocker Split Nostril Olfactometer_Pilot 2-43-1	74.911	1.0.0.1473	1	0		-999999	12529	5420841	0	q	632067	6052908	-347032282	2.0.10.242	2.0.10.242	07-15-2016	7/15/2016 6:13:29 PM	14:13:29	2.0.10.147	20	GREEN	NULL	NULL	BlockProcA	NULL	Test1	NULL	NULL	NULL	NULL	NULL	NULL	1	1	1	NULL	NULL	NULL	No	NULL	NULL	NULL	NULL	NULL	NULL	6	NULL	NULL	NULL	NULL	Nonenol	72	9	NULL	NULL	NULL	NULL	TrialProc	NULL	NULL	NULL	NULL	NULL	NULL	NULL	NULL	NULL	NULL	NULL	NULL	NULL	NULL	NULL	NULL	TMA	TrialList	NULL	NULL	NULL	NULL	NULL	NULL	8	1	6	NULL	NULL	NULL	2	NULL	NULL	1	6	6	NULL	Green	547	458	NULL	NULL	NULL	NULL	NULL	NULL	NULL	NULL	NULL	1	NULL	NULL	NULL	ExperimentProc	How intense is the odor?	Experiment	NULL	NULL	NULL	NULL	NULL	NULL	NULL	NULL	?
TMA Blocker Split Nostril Olfactometer_Pilot 2	43	1	<?xml version="1.0"?>\n<Clock xmlns:dt="urn:schemas-microsoft-com:datatypes"><Description dt:dt="string">E-Prime Primary Realtime Clock</Description><StartTime><Timestamp dt:dt="int">0</Timestamp><DateUtc dt:dt="string">2016-07-15T18:13:29Z</DateUtc></StartTime><FrequencyChanges><FrequencyChange><Frequency dt:dt="r8">2793160000</Frequency><Timestamp dt:dt="r8">4.36548115349432E+15</Timestamp><Current dt:dt="r8">0</Current><DateUtc dt:dt="string">2016-07-15T18:13:29Z</DateUtc></FrequencyChange></FrequencyChanges></Clock>\n	TMA Blocker Split Nostril Olfactometer_Pilot 2-43-1	74.911	1.0.0.1473	1	0		-999999	12529	5420841	0	q	632067	6052908	-347032282	2.0.10.242	2.0.10.242	07-15-2016	7/15/2016 6:13:29 PM	14:13:29	2.0.10.147	20	GREEN	NULL	NULL	BlockProcA	NULL	Test1	NULL	NULL	NULL	NULL	NULL	NULL	1	1	1	NULL	NULL	NULL	No	NULL	NULL	NULL	NULL	NULL	NULL	6	NULL	NULL	NULL	NULL	Nonenol	72	9	NULL	NULL	NULL	NULL	TrialProc	NULL	NULL	NULL	NULL	NULL	NULL	NULL	NULL	NULL	NULL	NULL	NULL	NULL	NULL	NULL	NULL	TMA	TrialList	NULL	NULL	NULL	NULL	NULL	NULL	8	1	6	NULL	NULL	NULL	3	NULL	2	NULL	NULL	NULL	NULL	NULL	NULL	NULL	0	2	-999999	13	3623919	0	1	1515	3625434	NULL	NULL	NULL	NULL	SongTrial	NULL	SoundList	NULL	NULL	12	1	6	NULL	NULL	NULL	NULL
TMA Blocker Split Nostril Olfactometer_Pilot 2	43	1	<?xml version="1.0"?>\n<Clock xmlns:dt="urn:schemas-microsoft-com:datatypes"><Description dt:dt="string">E-Prime Primary Realtime Clock</Description><StartTime><Timestamp dt:dt="int">0</Timestamp><DateUtc dt:dt="string">2016-07-15T18:13:29Z</DateUtc></StartTime><FrequencyChanges><FrequencyChange><Frequency dt:dt="r8">2793160000</Frequency><Timestamp dt:dt="r8">4.36548115349432E+15</Timestamp><Current dt:dt="r8">0</Current><DateUtc dt:dt="string">2016-07-15T18:13:29Z</DateUtc></FrequencyChange></FrequencyChanges></Clock>\n	TMA Blocker Split Nostril Olfactometer_Pilot 2-43-1	74.911	1.0.0.1473	1	0		-999999	12529	5420841	0	q	632067	6052908	-347032282	2.0.10.242	2.0.10.242	07-15-2016	7/15/2016 6:13:29 PM	14:13:29	2.0.10.147	20	GREEN	NULL	NULL	BlockProcA	NULL	Test1	NULL	NULL	NULL	NULL	NULL	NULL	1	1	1	NULL	NULL	NULL	No	NULL	NULL	NULL	NULL	NULL	NULL	7	NULL	NULL	NULL	NULL	Blank	66	9	NULL	NULL	NULL	NULL	TrialProc	NULL	NULL	NULL	NULL	NULL	NULL	NULL	NULL	NULL	NULL	NULL	NULL	NULL	NULL	NULL	NULL	TMA	TrialList	NULL	NULL	NULL	NULL	NULL	NULL	2	1	7	NULL	NULL	NULL	1	NULL	NULL	NULL	NULL	NULL	NULL	NULL	NULL	NULL	NULL	NULL	NULL	NULL	NULL	NULL	NULL	NULL	NULL	NULL	1	26	26	PrepareProc	NULL	Prepare	NULL	NULL	NULL	NULL	NULL	NULL	NULL	NULL	NULL
TMA Blocker Split Nostril Olfactometer_Pilot 2	43	1	<?xml version="1.0"?>\n<Clock xmlns:dt="urn:schemas-microsoft-com:datatypes"><Description dt:dt="string">E-Prime Primary Realtime Clock</Description><StartTime><Timestamp dt:dt="int">0</Timestamp><DateUtc dt:dt="string">2016-07-15T18:13:29Z</DateUtc></StartTime><FrequencyChanges><FrequencyChange><Frequency dt:dt="r8">2793160000</Frequency><Timestamp dt:dt="r8">4.36548115349432E+15</Timestamp><Current dt:dt="r8">0</Current><DateUtc dt:dt="string">2016-07-15T18:13:29Z</DateUtc></FrequencyChange></FrequencyChanges></Clock>\n	TMA Blocker Split Nostril Olfactometer_Pilot 2-43-1	74.911	1.0.0.1473	1	0		-999999	12529	5420841	0	q	632067	6052908	-347032282	2.0.10.242	2.0.10.242	07-15-2016	7/15/2016 6:13:29 PM	14:13:29	2.0.10.147	20	GREEN	NULL	NULL	BlockProcA	NULL	Test1	NULL	NULL	NULL	NULL	NULL	NULL	1	1	1	NULL	NULL	NULL	No	NULL	NULL	NULL	NULL	NULL	NULL	7	NULL	NULL	NULL	NULL	Blank	66	9	NULL	NULL	NULL	NULL	TrialProc	NULL	NULL	NULL	NULL	NULL	NULL	NULL	NULL	NULL	NULL	NULL	NULL	NULL	NULL	NULL	NULL	TMA	TrialList	NULL	NULL	NULL	NULL	NULL	NULL	2	1	7	NULL	NULL	NULL	2	NULL	NULL	1	7	7	NULL	Green	499	544	NULL	NULL	NULL	NULL	NULL	NULL	NULL	NULL	NULL	1	NULL	NULL	NULL	ExperimentProc	How intense is the odor?	Experiment	NULL	NULL	NULL	NULL	NULL	NULL	NULL	NULL	?
TMA Blocker Split Nostril Olfactometer_Pilot 2	43	1	<?xml version="1.0"?>\n<Clock xmlns:dt="urn:schemas-microsoft-com:datatypes"><Description dt:dt="string">E-Prime Primary Realtime Clock</Description><StartTime><Timestamp dt:dt="int">0</Timestamp><DateUtc dt:dt="string">2016-07-15T18:13:29Z</DateUtc></StartTime><FrequencyChanges><FrequencyChange><Frequency dt:dt="r8">2793160000</Frequency><Timestamp dt:dt="r8">4.36548115349432E+15</Timestamp><Current dt:dt="r8">0</Current><DateUtc dt:dt="string">2016-07-15T18:13:29Z</DateUtc></FrequencyChange></FrequencyChanges></Clock>\n	TMA Blocker Split Nostril Olfactometer_Pilot 2-43-1	74.911	1.0.0.1473	1	0		-999999	12529	5420841	0	q	632067	6052908	-347032282	2.0.10.242	2.0.10.242	07-15-2016	7/15/2016 6:13:29 PM	14:13:29	2.0.10.147	20	GREEN	NULL	NULL	BlockProcA	NULL	Test1	NULL	NULL	NULL	NULL	NULL	NULL	1	1	1	NULL	NULL	NULL	No	NULL	NULL	NULL	NULL	NULL	NULL	7	NULL	NULL	NULL	NULL	Blank	66	9	NULL	NULL	NULL	NULL	TrialProc	NULL	NULL	NULL	NULL	NULL	NULL	NULL	NULL	NULL	NULL	NULL	NULL	NULL	NULL	NULL	NULL	TMA	TrialList	NULL	NULL	NULL	NULL	NULL	NULL	2	1	7	NULL	NULL	NULL	3	NULL	2	NULL	NULL	NULL	NULL	NULL	NULL	NULL	0	2	-999999	13	3670441	0	1	504	3670945	NULL	NULL	NULL	NULL	SongTrial	NULL	SoundList	NULL	NULL	18	1	7	NULL	NULL	NULL	NULL
TMA Blocker Split Nostril Olfactometer_Pilot 2	43	1	<?xml version="1.0"?>\n<Clock xmlns:dt="urn:schemas-microsoft-com:datatypes"><Description dt:dt="string">E-Prime Primary Realtime Clock</Description><StartTime><Timestamp dt:dt="int">0</Timestamp><DateUtc dt:dt="string">2016-07-15T18:13:29Z</DateUtc></StartTime><FrequencyChanges><FrequencyChange><Frequency dt:dt="r8">2793160000</Frequency><Timestamp dt:dt="r8">4.36548115349432E+15</Timestamp><Current dt:dt="r8">0</Current><DateUtc dt:dt="string">2016-07-15T18:13:29Z</DateUtc></FrequencyChange></FrequencyChanges></Clock>\n	TMA Blocker Split Nostril Olfactometer_Pilot 2-43-1	74.911	1.0.0.1473	1	0		-999999	12529	5420841	0	q	632067	6052908	-347032282	2.0.10.242	2.0.10.242	07-15-2016	7/15/2016 6:13:29 PM	14:13:29	2.0.10.147	20	GREEN	NULL	NULL	BlockProcA	NULL	Test1	NULL	NULL	NULL	NULL	NULL	NULL	1	1	1	NULL	NULL	NULL	No	NULL	NULL	NULL	NULL	NULL	NULL	8	NULL	NULL	NULL	NULL	TMA+Nonenol	9	24	NULL	NULL	NULL	NULL	TrialProc	NULL	NULL	NULL	NULL	NULL	NULL	NULL	NULL	NULL	NULL	NULL	NULL	NULL	NULL	NULL	NULL	Blank	TrialList	NULL	NULL	NULL	NULL	NULL	NULL	5	1	8	NULL	NULL	NULL	1	NULL	NULL	NULL	NULL	NULL	NULL	NULL	NULL	NULL	NULL	NULL	NULL	NULL	NULL	NULL	NULL	NULL	NULL	NULL	1	27	27	PrepareProc	NULL	Prepare	NULL	NULL	NULL	NULL	NULL	NULL	NULL	NULL	NULL
TMA Blocker Split Nostril Olfactometer_Pilot 2	43	1	<?xml version="1.0"?>\n<Clock xmlns:dt="urn:schemas-microsoft-com:datatypes"><Description dt:dt="string">E-Prime Primary Realtime Clock</Description><StartTime><Timestamp dt:dt="int">0</Timestamp><DateUtc dt:dt="string">2016-07-15T18:13:29Z</DateUtc></StartTime><FrequencyChanges><FrequencyChange><Frequency dt:dt="r8">2793160000</Frequency><Timestamp dt:dt="r8">4.36548115349432E+15</Timestamp><Current dt:dt="r8">0</Current><DateUtc dt:dt="string">2016-07-15T18:13:29Z</DateUtc></FrequencyChange></FrequencyChanges></Clock>\n	TMA Blocker Split Nostril Olfactometer_Pilot 2-43-1	74.911	1.0.0.1473	1	0		-999999	12529	5420841	0	q	632067	6052908	-347032282	2.0.10.242	2.0.10.242	07-15-2016	7/15/2016 6:13:29 PM	14:13:29	2.0.10.147	20	GREEN	NULL	NULL	BlockProcA	NULL	Test1	NULL	NULL	NULL	NULL	NULL	NULL	1	1	1	NULL	NULL	NULL	No	NULL	NULL	NULL	NULL	NULL	NULL	8	NULL	NULL	NULL	NULL	TMA+Nonenol	9	24	NULL	NULL	NULL	NULL	TrialProc	NULL	NULL	NULL	NULL	NULL	NULL	NULL	NULL	NULL	NULL	NULL	NULL	NULL	NULL	NULL	NULL	Blank	TrialList	NULL	NULL	NULL	NULL	NULL	NULL	5	1	8	NULL	NULL	NULL	2	NULL	NULL	1	8	8	NULL	Green	494	441	NULL	NULL	NULL	NULL	NULL	NULL	NULL	NULL	NULL	1	NULL	NULL	NULL	ExperimentProc	How intense is the odor?	Experiment	NULL	NULL	NULL	NULL	NULL	NULL	NULL	NULL	?
TMA Blocker Split Nostril Olfactometer_Pilot 2	43	1	<?xml version="1.0"?>\n<Clock xmlns:dt="urn:schemas-microsoft-com:datatypes"><Description dt:dt="string">E-Prime Primary Realtime Clock</Description><StartTime><Timestamp dt:dt="int">0</Timestamp><DateUtc dt:dt="string">2016-07-15T18:13:29Z</DateUtc></StartTime><FrequencyChanges><FrequencyChange><Frequency dt:dt="r8">2793160000</Frequency><Timestamp dt:dt="r8">4.36548115349432E+15</Timestamp><Current dt:dt="r8">0</Current><DateUtc dt:dt="string">2016-07-15T18:13:29Z</DateUtc></FrequencyChange></FrequencyChanges></Clock>\n	TMA Blocker Split Nostril Olfactometer_Pilot 2-43-1	74.911	1.0.0.1473	1	0		-999999	12529	5420841	0	q	632067	6052908	-347032282	2.0.10.242	2.0.10.242	07-15-2016	7/15/2016 6:13:29 PM	14:13:29	2.0.10.147	20	GREEN	NULL	NULL	BlockProcA	NULL	Test1	NULL	NULL	NULL	NULL	NULL	NULL	1	1	1	NULL	NULL	NULL	No	NULL	NULL	NULL	NULL	NULL	NULL	8	NULL	NULL	NULL	NULL	TMA+Nonenol	9	24	NULL	NULL	NULL	NULL	TrialProc	NULL	NULL	NULL	NULL	NULL	NULL	NULL	NULL	NULL	NULL	NULL	NULL	NULL	NULL	NULL	NULL	Blank	TrialList	NULL	NULL	NULL	NULL	NULL	NULL	5	1	8	NULL	NULL	NULL	3	NULL	1	NULL	NULL	NULL	NULL	NULL	NULL	NULL	1	1	-999999	13	3713905	0	1	6138	3720043	NULL	NULL	NULL	NULL	SongTrial	NULL	SoundList	NULL	NULL	14	1	8	NULL	NULL	NULL	NULL
TMA Blocker Split Nostril Olfactometer_Pilot 2	43	1	<?xml version="1.0"?>\n<Clock xmlns:dt="urn:schemas-microsoft-com:datatypes"><Description dt:dt="string">E-Prime Primary Realtime Clock</Description><StartTime><Timestamp dt:dt="int">0</Timestamp><DateUtc dt:dt="string">2016-07-15T18:13:29Z</DateUtc></StartTime><FrequencyChanges><FrequencyChange><Frequency dt:dt="r8">2793160000</Frequency><Timestamp dt:dt="r8">4.36548115349432E+15</Timestamp><Current dt:dt="r8">0</Current><DateUtc dt:dt="string">2016-07-15T18:13:29Z</DateUtc></FrequencyChange></FrequencyChanges></Clock>\n	TMA Blocker Split Nostril Olfactometer_Pilot 2-43-1	74.911	1.0.0.1473	1	0		-999999	12529	5420841	0	q	632067	6052908	-347032282	2.0.10.242	2.0.10.242	07-15-2016	7/15/2016 6:13:29 PM	14:13:29	2.0.10.147	20	GREEN	NULL	NULL	BlockProcA	NULL	Test1	NULL	NULL	NULL	NULL	NULL	NULL	1	1	1	NULL	NULL	NULL	No	NULL	NULL	NULL	NULL	NULL	NULL	9	NULL	NULL	NULL	NULL	Blank	66	48	NULL	NULL	NULL	NULL	TrialProc	NULL	NULL	NULL	NULL	NULL	NULL	NULL	NULL	NULL	NULL	NULL	NULL	NULL	NULL	NULL	NULL	Nonenol	TrialList	NULL	NULL	NULL	NULL	NULL	NULL	4	1	9	NULL	NULL	NULL	1	NULL	NULL	NULL	NULL	NULL	NULL	NULL	NULL	NULL	NULL	NULL	NULL	NULL	NULL	NULL	NULL	NULL	NULL	NULL	1	28	28	PrepareProc	NULL	Prepare	NULL	NULL	NULL	NULL	NULL	NULL	NULL	NULL	NULL
TMA Blocker Split Nostril Olfactometer_Pilot 2	43	1	<?xml version="1.0"?>\n<Clock xmlns:dt="urn:schemas-microsoft-com:datatypes"><Description dt:dt="string">E-Prime Primary Realtime Clock</Description><StartTime><Timestamp dt:dt="int">0</Timestamp><DateUtc dt:dt="string">2016-07-15T18:13:29Z</DateUtc></StartTime><FrequencyChanges><FrequencyChange><Frequency dt:dt="r8">2793160000</Frequency><Timestamp dt:dt="r8">4.36548115349432E+15</Timestamp><Current dt:dt="r8">0</Current><DateUtc dt:dt="string">2016-07-15T18:13:29Z</DateUtc></FrequencyChange></FrequencyChanges></Clock>\n	TMA Blocker Split Nostril Olfactometer_Pilot 2-43-1	74.911	1.0.0.1473	1	0		-999999	12529	5420841	0	q	632067	6052908	-347032282	2.0.10.242	2.0.10.242	07-15-2016	7/15/2016 6:13:29 PM	14:13:29	2.0.10.147	20	GREEN	NULL	NULL	BlockProcA	NULL	Test1	NULL	NULL	NULL	NULL	NULL	NULL	1	1	1	NULL	NULL	NULL	No	NULL	NULL	NULL	NULL	NULL	NULL	9	NULL	NULL	NULL	NULL	Blank	66	48	NULL	NULL	NULL	NULL	TrialProc	NULL	NULL	NULL	NULL	NULL	NULL	NULL	NULL	NULL	NULL	NULL	NULL	NULL	NULL	NULL	NULL	Nonenol	TrialList	NULL	NULL	NULL	NULL	NULL	NULL	4	1	9	NULL	NULL	NULL	2	NULL	NULL	1	9	9	NULL	Green	444	552	NULL	NULL	NULL	NULL	NULL	NULL	NULL	NULL	NULL	1	NULL	NULL	NULL	ExperimentProc	How intense is the odor?	Experiment	NULL	NULL	NULL	NULL	NULL	NULL	NULL	NULL	?
TMA Blocker Split Nostril Olfactometer_Pilot 2	43	1	<?xml version="1.0"?>\n<Clock xmlns:dt="urn:schemas-microsoft-com:datatypes"><Description dt:dt="string">E-Prime Primary Realtime Clock</Description><StartTime><Timestamp dt:dt="int">0</Timestamp><DateUtc dt:dt="string">2016-07-15T18:13:29Z</DateUtc></StartTime><FrequencyChanges><FrequencyChange><Frequency dt:dt="r8">2793160000</Frequency><Timestamp dt:dt="r8">4.36548115349432E+15</Timestamp><Current dt:dt="r8">0</Current><DateUtc dt:dt="string">2016-07-15T18:13:29Z</DateUtc></FrequencyChange></FrequencyChanges></Clock>\n	TMA Blocker Split Nostril Olfactometer_Pilot 2-43-1	74.911	1.0.0.1473	1	0		-999999	12529	5420841	0	q	632067	6052908	-347032282	2.0.10.242	2.0.10.242	07-15-2016	7/15/2016 6:13:29 PM	14:13:29	2.0.10.147	20	GREEN	NULL	NULL	BlockProcA	NULL	Test1	NULL	NULL	NULL	NULL	NULL	NULL	1	1	1	NULL	NULL	NULL	No	NULL	NULL	NULL	NULL	NULL	NULL	9	NULL	NULL	NULL	NULL	Blank	66	48	NULL	NULL	NULL	NULL	TrialProc	NULL	NULL	NULL	NULL	NULL	NULL	NULL	NULL	NULL	NULL	NULL	NULL	NULL	NULL	NULL	NULL	Nonenol	TrialList	NULL	NULL	NULL	NULL	NULL	NULL	4	1	9	NULL	NULL	NULL	3	NULL	1	NULL	NULL	NULL	NULL	NULL	NULL	NULL	0	1	-1	13	3767382	10479		0	0	NULL	NULL	NULL	NULL	SongTrial	NULL	SoundList	NULL	NULL	19	1	9	NULL	NULL	NULL	NULL
TMA Blocker Split Nostril Olfactometer_Pilot 2	43	1	<?xml version="1.0"?>\n<Clock xmlns:dt="urn:schemas-microsoft-com:datatypes"><Description dt:dt="string">E-Prime Primary Realtime Clock</Description><StartTime><Timestamp dt:dt="int">0</Timestamp><DateUtc dt:dt="string">2016-07-15T18:13:29Z</DateUtc></StartTime><FrequencyChanges><FrequencyChange><Frequency dt:dt="r8">2793160000</Frequency><Timestamp dt:dt="r8">4.36548115349432E+15</Timestamp><Current dt:dt="r8">0</Current><DateUtc dt:dt="string">2016-07-15T18:13:29Z</DateUtc></FrequencyChange></FrequencyChanges></Clock>\n	TMA Blocker Split Nostril Olfactometer_Pilot 2-43-1	74.911	1.0.0.1473	1	0		-999999	12529	5420841	0	q	632067	6052908	-347032282	2.0.10.242	2.0.10.242	07-15-2016	7/15/2016 6:13:29 PM	14:13:29	2.0.10.147	20	GREEN	NULL	NULL	BlockProcA	NULL	Test1	NULL	NULL	NULL	NULL	NULL	NULL	1	1	1	NULL	NULL	NULL	No	NULL	NULL	NULL	NULL	NULL	NULL	10	NULL	NULL	NULL	NULL	TMA	3	48	NULL	NULL	NULL	NULL	TrialProc	NULL	NULL	NULL	NULL	NULL	NULL	NULL	NULL	NULL	NULL	NULL	NULL	NULL	NULL	NULL	NULL	Nonenol	TrialList	NULL	NULL	NULL	NULL	NULL	NULL	7	2	10	NULL	NULL	NULL	1	NULL	NULL	NULL	NULL	NULL	NULL	NULL	NULL	NULL	NULL	NULL	NULL	NULL	NULL	NULL	NULL	NULL	NULL	NULL	1	29	29	PrepareProc	NULL	Prepare	NULL	NULL	NULL	NULL	NULL	NULL	NULL	NULL	NULL
TMA Blocker Split Nostril Olfactometer_Pilot 2	43	1	<?xml version="1.0"?>\n<Clock xmlns:dt="urn:schemas-microsoft-com:datatypes"><Description dt:dt="string">E-Prime Primary Realtime Clock</Description><StartTime><Timestamp dt:dt="int">0</Timestamp><DateUtc dt:dt="string">2016-07-15T18:13:29Z</DateUtc></StartTime><FrequencyChanges><FrequencyChange><Frequency dt:dt="r8">2793160000</Frequency><Timestamp dt:dt="r8">4.36548115349432E+15</Timestamp><Current dt:dt="r8">0</Current><DateUtc dt:dt="string">2016-07-15T18:13:29Z</DateUtc></FrequencyChange></FrequencyChanges></Clock>\n	TMA Blocker Split Nostril Olfactometer_Pilot 2-43-1	74.911	1.0.0.1473	1	0		-999999	12529	5420841	0	q	632067	6052908	-347032282	2.0.10.242	2.0.10.242	07-15-2016	7/15/2016 6:13:29 PM	14:13:29	2.0.10.147	20	GREEN	NULL	NULL	BlockProcA	NULL	Test1	NULL	NULL	NULL	NULL	NULL	NULL	1	1	1	NULL	NULL	NULL	No	NULL	NULL	NULL	NULL	NULL	NULL	10	NULL	NULL	NULL	NULL	TMA	3	48	NULL	NULL	NULL	NULL	TrialProc	NULL	NULL	NULL	NULL	NULL	NULL	NULL	NULL	NULL	NULL	NULL	NULL	NULL	NULL	NULL	NULL	Nonenol	TrialList	NULL	NULL	NULL	NULL	NULL	NULL	7	2	10	NULL	NULL	NULL	2	NULL	NULL	1	10	10	NULL	Green	483	569	NULL	NULL	NULL	NULL	NULL	NULL	NULL	NULL	NULL	1	NULL	NULL	NULL	ExperimentProc	How intense is the odor?	Experiment	NULL	NULL	NULL	NULL	NULL	NULL	NULL	NULL	?
TMA Blocker Split Nostril Olfactometer_Pilot 2	43	1	<?xml version="1.0"?>\n<Clock xmlns:dt="urn:schemas-microsoft-com:datatypes"><Description dt:dt="string">E-Prime Primary Realtime Clock</Description><StartTime><Timestamp dt:dt="int">0</Timestamp><DateUtc dt:dt="string">2016-07-15T18:13:29Z</DateUtc></StartTime><FrequencyChanges><FrequencyChange><Frequency dt:dt="r8">2793160000</Frequency><Timestamp dt:dt="r8">4.36548115349432E+15</Timestamp><Current dt:dt="r8">0</Current><DateUtc dt:dt="string">2016-07-15T18:13:29Z</DateUtc></FrequencyChange></FrequencyChanges></Clock>\n	TMA Blocker Split Nostril Olfactometer_Pilot 2-43-1	74.911	1.0.0.1473	1	0		-999999	12529	5420841	0	q	632067	6052908	-347032282	2.0.10.242	2.0.10.242	07-15-2016	7/15/2016 6:13:29 PM	14:13:29	2.0.10.147	20	GREEN	NULL	NULL	BlockProcA	NULL	Test1	NULL	NULL	NULL	NULL	NULL	NULL	1	1	1	NULL	NULL	NULL	No	NULL	NULL	NULL	NULL	NULL	NULL	10	NULL	NULL	NULL	NULL	TMA	3	48	NULL	NULL	NULL	NULL	TrialProc	NULL	NULL	NULL	NULL	NULL	NULL	NULL	NULL	NULL	NULL	NULL	NULL	NULL	NULL	NULL	NULL	Nonenol	TrialList	NULL	NULL	NULL	NULL	NULL	NULL	7	2	10	NULL	NULL	NULL	3	NULL	1	NULL	NULL	NULL	NULL	NULL	NULL	NULL	1	1	-999999	13	3821646	0	1	1165	3822811	NULL	NULL	NULL	NULL	SongTrial	NULL	SoundList	NULL	NULL	1	1	10	NULL	NULL	NULL	NULL
TMA Blocker Split Nostril Olfactometer_Pilot 2	43	1	<?xml version="1.0"?>\n<Clock xmlns:dt="urn:schemas-microsoft-com:datatypes"><Description dt:dt="string">E-Prime Primary Realtime Clock</Description><StartTime><Timestamp dt:dt="int">0</Timestamp><DateUtc dt:dt="string">2016-07-15T18:13:29Z</DateUtc></StartTime><FrequencyChanges><FrequencyChange><Frequency dt:dt="r8">2793160000</Frequency><Timestamp dt:dt="r8">4.36548115349432E+15</Timestamp><Current dt:dt="r8">0</Current><DateUtc dt:dt="string">2016-07-15T18:13:29Z</DateUtc></FrequencyChange></FrequencyChanges></Clock>\n	TMA Blocker Split Nostril Olfactometer_Pilot 2-43-1	74.911	1.0.0.1473	1	0		-999999	12529	5420841	0	q	632067	6052908	-347032282	2.0.10.242	2.0.10.242	07-15-2016	7/15/2016 6:13:29 PM	14:13:29	2.0.10.147	20	GREEN	NULL	NULL	BlockProcA	NULL	Test1	NULL	NULL	NULL	NULL	NULL	NULL	1	1	1	NULL	NULL	NULL	No	NULL	NULL	NULL	NULL	NULL	NULL	11	NULL	NULL	NULL	NULL	Blank	66	24	NULL	NULL	NULL	NULL	TrialProc	NULL	NULL	NULL	NULL	NULL	NULL	NULL	NULL	NULL	NULL	NULL	NULL	NULL	NULL	NULL	NULL	Blank	TrialList	NULL	NULL	NULL	NULL	NULL	NULL	9	2	11	NULL	NULL	NULL	1	NULL	NULL	NULL	NULL	NULL	NULL	NULL	NULL	NULL	NULL	NULL	NULL	NULL	NULL	NULL	NULL	NULL	NULL	NULL	1	30	30	PrepareProc	NULL	Prepare	NULL	NULL	NULL	NULL	NULL	NULL	NULL	NULL	NULL
TMA Blocker Split Nostril Olfactometer_Pilot 2	43	1	<?xml version="1.0"?>\n<Clock xmlns:dt="urn:schemas-microsoft-com:datatypes"><Description dt:dt="string">E-Prime Primary Realtime Clock</Description><StartTime><Timestamp dt:dt="int">0</Timestamp><DateUtc dt:dt="string">2016-07-15T18:13:29Z</DateUtc></StartTime><FrequencyChanges><FrequencyChange><Frequency dt:dt="r8">2793160000</Frequency><Timestamp dt:dt="r8">4.36548115349432E+15</Timestamp><Current dt:dt="r8">0</Current><DateUtc dt:dt="string">2016-07-15T18:13:29Z</DateUtc></FrequencyChange></FrequencyChanges></Clock>\n	TMA Blocker Split Nostril Olfactometer_Pilot 2-43-1	74.911	1.0.0.1473	1	0		-999999	12529	5420841	0	q	632067	6052908	-347032282	2.0.10.242	2.0.10.242	07-15-2016	7/15/2016 6:13:29 PM	14:13:29	2.0.10.147	20	GREEN	NULL	NULL	BlockProcA	NULL	Test1	NULL	NULL	NULL	NULL	NULL	NULL	1	1	1	NULL	NULL	NULL	No	NULL	NULL	NULL	NULL	NULL	NULL	11	NULL	NULL	NULL	NULL	Blank	66	24	NULL	NULL	NULL	NULL	TrialProc	NULL	NULL	NULL	NULL	NULL	NULL	NULL	NULL	NULL	NULL	NULL	NULL	NULL	NULL	NULL	NULL	Blank	TrialList	NULL	NULL	NULL	NULL	NULL	NULL	9	2	11	NULL	NULL	NULL	2	NULL	NULL	1	11	11	NULL	Green	550	551	NULL	NULL	NULL	NULL	NULL	NULL	NULL	NULL	NULL	1	NULL	NULL	NULL	ExperimentProc	How intense is the odor?	Experiment	NULL	NULL	NULL	NULL	NULL	NULL	NULL	NULL	?
TMA Blocker Split Nostril Olfactometer_Pilot 2	43	1	<?xml version="1.0"?>\n<Clock xmlns:dt="urn:schemas-microsoft-com:datatypes"><Description dt:dt="string">E-Prime Primary Realtime Clock</Description><StartTime><Timestamp dt:dt="int">0</Timestamp><DateUtc dt:dt="string">2016-07-15T18:13:29Z</DateUtc></StartTime><FrequencyChanges><FrequencyChange><Frequency dt:dt="r8">2793160000</Frequency><Timestamp dt:dt="r8">4.36548115349432E+15</Timestamp><Current dt:dt="r8">0</Current><DateUtc dt:dt="string">2016-07-15T18:13:29Z</DateUtc></FrequencyChange></FrequencyChanges></Clock>\n	TMA Blocker Split Nostril Olfactometer_Pilot 2-43-1	74.911	1.0.0.1473	1	0		-999999	12529	5420841	0	q	632067	6052908	-347032282	2.0.10.242	2.0.10.242	07-15-2016	7/15/2016 6:13:29 PM	14:13:29	2.0.10.147	20	GREEN	NULL	NULL	BlockProcA	NULL	Test1	NULL	NULL	NULL	NULL	NULL	NULL	1	1	1	NULL	NULL	NULL	No	NULL	NULL	NULL	NULL	NULL	NULL	11	NULL	NULL	NULL	NULL	Blank	66	24	NULL	NULL	NULL	NULL	TrialProc	NULL	NULL	NULL	NULL	NULL	NULL	NULL	NULL	NULL	NULL	NULL	NULL	NULL	NULL	NULL	NULL	Blank	TrialList	NULL	NULL	NULL	NULL	NULL	NULL	9	2	11	NULL	NULL	NULL	3	NULL	1	NULL	NULL	NULL	NULL	NULL	NULL	NULL	1	1	-999999	13	3869396	0	1	3230	3872626	NULL	NULL	NULL	NULL	SongTrial	NULL	SoundList	NULL	NULL	10	1	11	NULL	NULL	NULL	NULL
TMA Blocker Split Nostril Olfactometer_Pilot 2	43	1	<?xml version="1.0"?>\n<Clock xmlns:dt="urn:schemas-microsoft-com:datatypes"><Description dt:dt="string">E-Prime Primary Realtime Clock</Description><StartTime><Timestamp dt:dt="int">0</Timestamp><DateUtc dt:dt="string">2016-07-15T18:13:29Z</DateUtc></StartTime><FrequencyChanges><FrequencyChange><Frequency dt:dt="r8">2793160000</Frequency><Timestamp dt:dt="r8">4.36548115349432E+15</Timestamp><Current dt:dt="r8">0</Current><DateUtc dt:dt="string">2016-07-15T18:13:29Z</DateUtc></FrequencyChange></FrequencyChanges></Clock>\n	TMA Blocker Split Nostril Olfactometer_Pilot 2-43-1	74.911	1.0.0.1473	1	0		-999999	12529	5420841	0	q	632067	6052908	-347032282	2.0.10.242	2.0.10.242	07-15-2016	7/15/2016 6:13:29 PM	14:13:29	2.0.10.147	20	GREEN	NULL	NULL	BlockProcA	NULL	Test1	NULL	NULL	NULL	NULL	NULL	NULL	1	1	1	NULL	NULL	NULL	No	NULL	NULL	NULL	NULL	NULL	NULL	12	NULL	NULL	NULL	NULL	Blank	66	48	NULL	NULL	NULL	NULL	TrialProc	NULL	NULL	NULL	NULL	NULL	NULL	NULL	NULL	NULL	NULL	NULL	NULL	NULL	NULL	NULL	NULL	Nonenol	TrialList	NULL	NULL	NULL	NULL	NULL	NULL	4	2	12	NULL	NULL	NULL	1	NULL	NULL	NULL	NULL	NULL	NULL	NULL	NULL	NULL	NULL	NULL	NULL	NULL	NULL	NULL	NULL	NULL	NULL	NULL	1	31	31	PrepareProc	NULL	Prepare	NULL	NULL	NULL	NULL	NULL	NULL	NULL	NULL	NULL
TMA Blocker Split Nostril Olfactometer_Pilot 2	43	1	<?xml version="1.0"?>\n<Clock xmlns:dt="urn:schemas-microsoft-com:datatypes"><Description dt:dt="string">E-Prime Primary Realtime Clock</Description><StartTime><Timestamp dt:dt="int">0</Timestamp><DateUtc dt:dt="string">2016-07-15T18:13:29Z</DateUtc></StartTime><FrequencyChanges><FrequencyChange><Frequency dt:dt="r8">2793160000</Frequency><Timestamp dt:dt="r8">4.36548115349432E+15</Timestamp><Current dt:dt="r8">0</Current><DateUtc dt:dt="string">2016-07-15T18:13:29Z</DateUtc></FrequencyChange></FrequencyChanges></Clock>\n	TMA Blocker Split Nostril Olfactometer_Pilot 2-43-1	74.911	1.0.0.1473	1	0		-999999	12529	5420841	0	q	632067	6052908	-347032282	2.0.10.242	2.0.10.242	07-15-2016	7/15/2016 6:13:29 PM	14:13:29	2.0.10.147	20	GREEN	NULL	NULL	BlockProcA	NULL	Test1	NULL	NULL	NULL	NULL	NULL	NULL	1	1	1	NULL	NULL	NULL	No	NULL	NULL	NULL	NULL	NULL	NULL	12	NULL	NULL	NULL	NULL	Blank	66	48	NULL	NULL	NULL	NULL	TrialProc	NULL	NULL	NULL	NULL	NULL	NULL	NULL	NULL	NULL	NULL	NULL	NULL	NULL	NULL	NULL	NULL	Nonenol	TrialList	NULL	NULL	NULL	NULL	NULL	NULL	4	2	12	NULL	NULL	NULL	2	NULL	NULL	1	12	12	NULL	Green	516	571	NULL	NULL	NULL	NULL	NULL	NULL	NULL	NULL	NULL	1	NULL	NULL	NULL	ExperimentProc	How intense is the odor?	Experiment	NULL	NULL	NULL	NULL	NULL	NULL	NULL	NULL	?
TMA Blocker Split Nostril Olfactometer_Pilot 2	43	1	<?xml version="1.0"?>\n<Clock xmlns:dt="urn:schemas-microsoft-com:datatypes"><Description dt:dt="string">E-Prime Primary Realtime Clock</Description><StartTime><Timestamp dt:dt="int">0</Timestamp><DateUtc dt:dt="string">2016-07-15T18:13:29Z</DateUtc></StartTime><FrequencyChanges><FrequencyChange><Frequency dt:dt="r8">2793160000</Frequency><Timestamp dt:dt="r8">4.36548115349432E+15</Timestamp><Current dt:dt="r8">0</Current><DateUtc dt:dt="string">2016-07-15T18:13:29Z</DateUtc></FrequencyChange></FrequencyChanges></Clock>\n	TMA Blocker Split Nostril Olfactometer_Pilot 2-43-1	74.911	1.0.0.1473	1	0		-999999	12529	5420841	0	q	632067	6052908	-347032282	2.0.10.242	2.0.10.242	07-15-2016	7/15/2016 6:13:29 PM	14:13:29	2.0.10.147	20	GREEN	NULL	NULL	BlockProcA	NULL	Test1	NULL	NULL	NULL	NULL	NULL	NULL	1	1	1	NULL	NULL	NULL	No	NULL	NULL	NULL	NULL	NULL	NULL	12	NULL	NULL	NULL	NULL	Blank	66	48	NULL	NULL	NULL	NULL	TrialProc	NULL	NULL	NULL	NULL	NULL	NULL	NULL	NULL	NULL	NULL	NULL	NULL	NULL	NULL	NULL	NULL	Nonenol	TrialList	NULL	NULL	NULL	NULL	NULL	NULL	4	2	12	NULL	NULL	NULL	3	NULL	2	NULL	NULL	NULL	NULL	NULL	NULL	NULL	0	2	-999999	13	3924487	0	1	666	3925153	NULL	NULL	NULL	NULL	SongTrial	NULL	SoundList	NULL	NULL	2	1	12	NULL	NULL	NULL	NULL
TMA Blocker Split Nostril Olfactometer_Pilot 2	43	1	<?xml version="1.0"?>\n<Clock xmlns:dt="urn:schemas-microsoft-com:datatypes"><Description dt:dt="string">E-Prime Primary Realtime Clock</Description><StartTime><Timestamp dt:dt="int">0</Timestamp><DateUtc dt:dt="string">2016-07-15T18:13:29Z</DateUtc></StartTime><FrequencyChanges><FrequencyChange><Frequency dt:dt="r8">2793160000</Frequency><Timestamp dt:dt="r8">4.36548115349432E+15</Timestamp><Current dt:dt="r8">0</Current><DateUtc dt:dt="string">2016-07-15T18:13:29Z</DateUtc></FrequencyChange></FrequencyChanges></Clock>\n	TMA Blocker Split Nostril Olfactometer_Pilot 2-43-1	74.911	1.0.0.1473	1	0		-999999	12529	5420841	0	q	632067	6052908	-347032282	2.0.10.242	2.0.10.242	07-15-2016	7/15/2016 6:13:29 PM	14:13:29	2.0.10.147	20	GREEN	NULL	NULL	BlockProcA	NULL	Test1	NULL	NULL	NULL	NULL	NULL	NULL	1	1	1	NULL	NULL	NULL	No	NULL	NULL	NULL	NULL	NULL	NULL	13	NULL	NULL	NULL	NULL	Blank	66	9	NULL	NULL	NULL	NULL	TrialProc	NULL	NULL	NULL	NULL	NULL	NULL	NULL	NULL	NULL	NULL	NULL	NULL	NULL	NULL	NULL	NULL	TMA	TrialList	NULL	NULL	NULL	NULL	NULL	NULL	2	2	13	NULL	NULL	NULL	1	NULL	NULL	NULL	NULL	NULL	NULL	NULL	NULL	NULL	NULL	NULL	NULL	NULL	NULL	NULL	NULL	NULL	NULL	NULL	1	32	32	PrepareProc	NULL	Prepare	NULL	NULL	NULL	NULL	NULL	NULL	NULL	NULL	NULL
TMA Blocker Split Nostril Olfactometer_Pilot 2	43	1	<?xml version="1.0"?>\n<Clock xmlns:dt="urn:schemas-microsoft-com:datatypes"><Description dt:dt="string">E-Prime Primary Realtime Clock</Description><StartTime><Timestamp dt:dt="int">0</Timestamp><DateUtc dt:dt="string">2016-07-15T18:13:29Z</DateUtc></StartTime><FrequencyChanges><FrequencyChange><Frequency dt:dt="r8">2793160000</Frequency><Timestamp dt:dt="r8">4.36548115349432E+15</Timestamp><Current dt:dt="r8">0</Current><DateUtc dt:dt="string">2016-07-15T18:13:29Z</DateUtc></FrequencyChange></FrequencyChanges></Clock>\n	TMA Blocker Split Nostril Olfactometer_Pilot 2-43-1	74.911	1.0.0.1473	1	0		-999999	12529	5420841	0	q	632067	6052908	-347032282	2.0.10.242	2.0.10.242	07-15-2016	7/15/2016 6:13:29 PM	14:13:29	2.0.10.147	20	GREEN	NULL	NULL	BlockProcA	NULL	Test1	NULL	NULL	NULL	NULL	NULL	NULL	1	1	1	NULL	NULL	NULL	No	NULL	NULL	NULL	NULL	NULL	NULL	13	NULL	NULL	NULL	NULL	Blank	66	9	NULL	NULL	NULL	NULL	TrialProc	NULL	NULL	NULL	NULL	NULL	NULL	NULL	NULL	NULL	NULL	NULL	NULL	NULL	NULL	NULL	NULL	TMA	TrialList	NULL	NULL	NULL	NULL	NULL	NULL	2	2	13	NULL	NULL	NULL	2	NULL	NULL	1	13	13	NULL	Green	575	551	NULL	NULL	NULL	NULL	NULL	NULL	NULL	NULL	NULL	1	NULL	NULL	NULL	ExperimentProc	How intense is the odor?	Experiment	NULL	NULL	NULL	NULL	NULL	NULL	NULL	NULL	?
TMA Blocker Split Nostril Olfactometer_Pilot 2	43	1	<?xml version="1.0"?>\n<Clock xmlns:dt="urn:schemas-microsoft-com:datatypes"><Description dt:dt="string">E-Prime Primary Realtime Clock</Description><StartTime><Timestamp dt:dt="int">0</Timestamp><DateUtc dt:dt="string">2016-07-15T18:13:29Z</DateUtc></StartTime><FrequencyChanges><FrequencyChange><Frequency dt:dt="r8">2793160000</Frequency><Timestamp dt:dt="r8">4.36548115349432E+15</Timestamp><Current dt:dt="r8">0</Current><DateUtc dt:dt="string">2016-07-15T18:13:29Z</DateUtc></FrequencyChange></FrequencyChanges></Clock>\n	TMA Blocker Split Nostril Olfactometer_Pilot 2-43-1	74.911	1.0.0.1473	1	0		-999999	12529	5420841	0	q	632067	6052908	-347032282	2.0.10.242	2.0.10.242	07-15-2016	7/15/2016 6:13:29 PM	14:13:29	2.0.10.147	20	GREEN	NULL	NULL	BlockProcA	NULL	Test1	NULL	NULL	NULL	NULL	NULL	NULL	1	1	1	NULL	NULL	NULL	No	NULL	NULL	NULL	NULL	NULL	NULL	13	NULL	NULL	NULL	NULL	Blank	66	9	NULL	NULL	NULL	NULL	TrialProc	NULL	NULL	NULL	NULL	NULL	NULL	NULL	NULL	NULL	NULL	NULL	NULL	NULL	NULL	NULL	NULL	TMA	TrialList	NULL	NULL	NULL	NULL	NULL	NULL	2	2	13	NULL	NULL	NULL	3	NULL	1	NULL	NULL	NULL	NULL	NULL	NULL	NULL	1	1	-999999	13	3970916	0	1	6011	3976927	NULL	NULL	NULL	NULL	SongTrial	NULL	SoundList	NULL	NULL	4	1	13	NULL	NULL	NULL	NULL
TMA Blocker Split Nostril Olfactometer_Pilot 2	43	1	<?xml version="1.0"?>\n<Clock xmlns:dt="urn:schemas-microsoft-com:datatypes"><Description dt:dt="string">E-Prime Primary Realtime Clock</Description><StartTime><Timestamp dt:dt="int">0</Timestamp><DateUtc dt:dt="string">2016-07-15T18:13:29Z</DateUtc></StartTime><FrequencyChanges><FrequencyChange><Frequency dt:dt="r8">2793160000</Frequency><Timestamp dt:dt="r8">4.36548115349432E+15</Timestamp><Current dt:dt="r8">0</Current><DateUtc dt:dt="string">2016-07-15T18:13:29Z</DateUtc></FrequencyChange></FrequencyChanges></Clock>\n	TMA Blocker Split Nostril Olfactometer_Pilot 2-43-1	74.911	1.0.0.1473	1	0		-999999	12529	5420841	0	q	632067	6052908	-347032282	2.0.10.242	2.0.10.242	07-15-2016	7/15/2016 6:13:29 PM	14:13:29	2.0.10.147	20	GREEN	NULL	NULL	BlockProcA	NULL	Test1	NULL	NULL	NULL	NULL	NULL	NULL	1	1	1	NULL	NULL	NULL	No	NULL	NULL	NULL	NULL	NULL	NULL	14	NULL	NULL	NULL	NULL	TMA	3	24	NULL	NULL	NULL	NULL	TrialProc	NULL	NULL	NULL	NULL	NULL	NULL	NULL	NULL	NULL	NULL	NULL	NULL	NULL	NULL	NULL	NULL	Blank	TrialList	NULL	NULL	NULL	NULL	NULL	NULL	1	2	14	NULL	NULL	NULL	1	NULL	NULL	NULL	NULL	NULL	NULL	NULL	NULL	NULL	NULL	NULL	NULL	NULL	NULL	NULL	NULL	NULL	NULL	NULL	1	33	33	PrepareProc	NULL	Prepare	NULL	NULL	NULL	NULL	NULL	NULL	NULL	NULL	NULL
