ExperimentName	Subject	Session	Clock.Information	DataFile.Basename	Display.RefreshRate	ExperimentVersion	Group	Menu1.ACC	Menu1.CRESP	Menu1.DurationError	Menu1.OnsetDelay	Menu1.OnsetTime	Menu1.OnsetToOnsetTime	Menu1.RESP	Menu1.RT	Menu1.RTTime	RandomSeed	RuntimeVersion	RuntimeVersionExpected	SessionDate	SessionStartDateTimeUtc	SessionTime	StudioVersion	Block	Antag	Green[Block]	IntensityRatingTraining[Block]	Procedure[Block]	Question[Block]	Running[Block]	ScaleTraining	ScaleTraining.Cycle	ScaleTraining.Sample	SniffingInstructionsList	SniffingInstructionsList.Cycle	SniffingInstructionsList.Sample	Test1	Test1.Cycle	Test1.Sample	Test2	Test2.Cycle	Test2.Sample	TestMode	Train1	Train1.Cycle	Train1.Sample	Train2	Train2.Cycle	Train2.Sample	Trial	CorrectAnswer[Trial]	Descriptor	Green[Trial]	IntensityRatingTraining[Trial]	LeftType	OdorLeft	OdorRight	OdorType	Prepare[Trial]	Prepare.Cycle[Trial]	Prepare.Sample[Trial]	Procedure[Trial]	Question[Trial]	QuizList	QuizList.Cycle	QuizList.Sample	QuizList2	QuizList2.Cycle	QuizList2.Sample	QuizPage.ACC	QuizPage.CRESP	QuizPage.DurationError	QuizPage.OnsetDelay	QuizPage.OnsetTime	QuizPage.OnsetToOnsetTime	QuizPage.RESP	QuizPage.RT	QuizPage.RTTime	RightType	Running[Trial]	TrainList	TrainList.Cycle	TrainList.Sample	TrainList2	TrainList2.Cycle	TrainList2.Sample	TrialList	TrialList.Cycle	TrialList.Sample	TrialList2	TrialList2.Cycle	TrialList2.Sample	SubTrial	Band	CorrectAnswer[SubTrial]	Experiment	Experiment.Cycle	Experiment.Sample	Gender	Green[SubTrial]	IntensityRatingAntag	IntensityRatingFishy	MorF.ACC	MorF.CRESP	MorF.DurationError	MorF.OnsetDelay	MorF.OnsetTime	MorF.OnsetToOnsetTime	MorF.RESP	MorF.RT	MorF.RTTime	OdorAndConcentration	Prepare[SubTrial]	Prepare.Cycle[SubTrial]	Prepare.Sample[SubTrial]	Procedure[SubTrial]	Question[SubTrial]	Running[SubTrial]	SongName	SongTitle	SoundList	SoundList.Cycle	SoundList.Sample	SoundList2	SoundList2.Cycle	SoundList2.Sample	TrialNo
TMA Blocker Split Nostril Olfactometer_Pilot 2	47	1	<?xml version="1.0"?>\n<Clock xmlns:dt="urn:schemas-microsoft-com:datatypes"><Description dt:dt="string">E-Prime Primary Realtime Clock</Description><StartTime><Timestamp dt:dt="int">0</Timestamp><DateUtc dt:dt="string">2016-07-19T18:26:39Z</DateUtc></StartTime><FrequencyChanges><FrequencyChange><Frequency dt:dt="r8">2793160000</Frequency><Timestamp dt:dt="r8">5.33298233245456E+15</Timestamp><Current dt:dt="r8">0</Current><DateUtc dt:dt="string">2016-07-19T18:26:39Z</DateUtc></FrequencyChange></FrequencyChanges></Clock>\n	TMA Blocker Split Nostril Olfactometer_Pilot 2-47-1	74.911	1.0.0.1473	1	0		-999999	12048	4484314	0	q	352731	4837045	-719387603	2.0.10.242	2.0.10.242	07-19-2016	7/19/2016 6:26:40 PM	14:26:40	2.0.10.147	1	NULL		310	ScaleTrainingProc	The heat from dipping your hand in scalding hot water	ScaleTraining	3	2	1	NULL	NULL	NULL	NULL	NULL	NULL	NULL	NULL	NULL	NULL	NULL	NULL	NULL	NULL	NULL	NULL	NULL	NULL	NULL	NULL	NULL	NULL	NULL	NULL	NULL	NULL	NULL	NULL	NULL	NULL	NULL	NULL	NULL	NULL	NULL	NULL	NULL	NULL	NULL	NULL	NULL	NULL	NULL	NULL	NULL	NULL	NULL	NULL	NULL	NULL	NULL	NULL	NULL	NULL	NULL	NULL	NULL	NULL	NULL	NULL	NULL	NULL	NULL	NULL	NULL	NULL	NULL	NULL	NULL	NULL	NULL	NULL	NULL	NULL	NULL	NULL	NULL	NULL	NULL	NULL	NULL	NULL	NULL	NULL	NULL	NULL	NULL	NULL	NULL	NULL	NULL	NULL	NULL	NULL
TMA Blocker Split Nostril Olfactometer_Pilot 2	47	1	<?xml version="1.0"?>\n<Clock xmlns:dt="urn:schemas-microsoft-com:datatypes"><Description dt:dt="string">E-Prime Primary Realtime Clock</Description><StartTime><Timestamp dt:dt="int">0</Timestamp><DateUtc dt:dt="string">2016-07-19T18:26:39Z</DateUtc></StartTime><FrequencyChanges><FrequencyChange><Frequency dt:dt="r8">2793160000</Frequency><Timestamp dt:dt="r8">5.33298233245456E+15</Timestamp><Current dt:dt="r8">0</Current><DateUtc dt:dt="string">2016-07-19T18:26:39Z</DateUtc></FrequencyChange></FrequencyChanges></Clock>\n	TMA Blocker Split Nostril Olfactometer_Pilot 2-47-1	74.911	1.0.0.1473	1	0		-999999	12048	4484314	0	q	352731	4837045	-719387603	2.0.10.242	2.0.10.242	07-19-2016	7/19/2016 6:26:40 PM	14:26:40	2.0.10.147	2	NULL		399	ScaleTrainingProc	The sweetness of cotton candy	ScaleTraining	12	2	2	NULL	NULL	NULL	NULL	NULL	NULL	NULL	NULL	NULL	NULL	NULL	NULL	NULL	NULL	NULL	NULL	NULL	NULL	NULL	NULL	NULL	NULL	NULL	NULL	NULL	NULL	NULL	NULL	NULL	NULL	NULL	NULL	NULL	NULL	NULL	NULL	NULL	NULL	NULL	NULL	NULL	NULL	NULL	NULL	NULL	NULL	NULL	NULL	NULL	NULL	NULL	NULL	NULL	NULL	NULL	NULL	NULL	NULL	NULL	NULL	NULL	NULL	NULL	NULL	NULL	NULL	NULL	NULL	NULL	NULL	NULL	NULL	NULL	NULL	NULL	NULL	NULL	NULL	NULL	NULL	NULL	NULL	NULL	NULL	NULL	NULL	NULL	NULL	NULL	NULL	NULL	NULL	NULL	NULL
TMA Blocker Split Nostril Olfactometer_Pilot 2	47	1	<?xml version="1.0"?>\n<Clock xmlns:dt="urn:schemas-microsoft-com:datatypes"><Description dt:dt="string">E-Prime Primary Realtime Clock</Description><StartTime><Timestamp dt:dt="int">0</Timestamp><DateUtc dt:dt="string">2016-07-19T18:26:39Z</DateUtc></StartTime><FrequencyChanges><FrequencyChange><Frequency dt:dt="r8">2793160000</Frequency><Timestamp dt:dt="r8">5.33298233245456E+15</Timestamp><Current dt:dt="r8">0</Current><DateUtc dt:dt="string">2016-07-19T18:26:39Z</DateUtc></FrequencyChange></FrequencyChanges></Clock>\n	TMA Blocker Split Nostril Olfactometer_Pilot 2-47-1	74.911	1.0.0.1473	1	0		-999999	12048	4484314	0	q	352731	4837045	-719387603	2.0.10.242	2.0.10.242	07-19-2016	7/19/2016 6:26:40 PM	14:26:40	2.0.10.147	3	NULL		491	ScaleTrainingProc	The warmth of a summer breeze on your face	ScaleTraining	10	2	3	NULL	NULL	NULL	NULL	NULL	NULL	NULL	NULL	NULL	NULL	NULL	NULL	NULL	NULL	NULL	NULL	NULL	NULL	NULL	NULL	NULL	NULL	NULL	NULL	NULL	NULL	NULL	NULL	NULL	NULL	NULL	NULL	NULL	NULL	NULL	NULL	NULL	NULL	NULL	NULL	NULL	NULL	NULL	NULL	NULL	NULL	NULL	NULL	NULL	NULL	NULL	NULL	NULL	NULL	NULL	NULL	NULL	NULL	NULL	NULL	NULL	NULL	NULL	NULL	NULL	NULL	NULL	NULL	NULL	NULL	NULL	NULL	NULL	NULL	NULL	NULL	NULL	NULL	NULL	NULL	NULL	NULL	NULL	NULL	NULL	NULL	NULL	NULL	NULL	NULL	NULL	NULL	NULL	NULL
TMA Blocker Split Nostril Olfactometer_Pilot 2	47	1	<?xml version="1.0"?>\n<Clock xmlns:dt="urn:schemas-microsoft-com:datatypes"><Description dt:dt="string">E-Prime Primary Realtime Clock</Description><StartTime><Timestamp dt:dt="int">0</Timestamp><DateUtc dt:dt="string">2016-07-19T18:26:39Z</DateUtc></StartTime><FrequencyChanges><FrequencyChange><Frequency dt:dt="r8">2793160000</Frequency><Timestamp dt:dt="r8">5.33298233245456E+15</Timestamp><Current dt:dt="r8">0</Current><DateUtc dt:dt="string">2016-07-19T18:26:39Z</DateUtc></FrequencyChange></FrequencyChanges></Clock>\n	TMA Blocker Split Nostril Olfactometer_Pilot 2-47-1	74.911	1.0.0.1473	1	0		-999999	12048	4484314	0	q	352731	4837045	-719387603	2.0.10.242	2.0.10.242	07-19-2016	7/19/2016 6:26:40 PM	14:26:40	2.0.10.147	4	NULL		407	ScaleTrainingProc	The strength of a firm handshake	ScaleTraining	6	2	4	NULL	NULL	NULL	NULL	NULL	NULL	NULL	NULL	NULL	NULL	NULL	NULL	NULL	NULL	NULL	NULL	NULL	NULL	NULL	NULL	NULL	NULL	NULL	NULL	NULL	NULL	NULL	NULL	NULL	NULL	NULL	NULL	NULL	NULL	NULL	NULL	NULL	NULL	NULL	NULL	NULL	NULL	NULL	NULL	NULL	NULL	NULL	NULL	NULL	NULL	NULL	NULL	NULL	NULL	NULL	NULL	NULL	NULL	NULL	NULL	NULL	NULL	NULL	NULL	NULL	NULL	NULL	NULL	NULL	NULL	NULL	NULL	NULL	NULL	NULL	NULL	NULL	NULL	NULL	NULL	NULL	NULL	NULL	NULL	NULL	NULL	NULL	NULL	NULL	NULL	NULL	NULL	NULL	NULL
TMA Blocker Split Nostril Olfactometer_Pilot 2	47	1	<?xml version="1.0"?>\n<Clock xmlns:dt="urn:schemas-microsoft-com:datatypes"><Description dt:dt="string">E-Prime Primary Realtime Clock</Description><StartTime><Timestamp dt:dt="int">0</Timestamp><DateUtc dt:dt="string">2016-07-19T18:26:39Z</DateUtc></StartTime><FrequencyChanges><FrequencyChange><Frequency dt:dt="r8">2793160000</Frequency><Timestamp dt:dt="r8">5.33298233245456E+15</Timestamp><Current dt:dt="r8">0</Current><DateUtc dt:dt="string">2016-07-19T18:26:39Z</DateUtc></FrequencyChange></FrequencyChanges></Clock>\n	TMA Blocker Split Nostril Olfactometer_Pilot 2-47-1	74.911	1.0.0.1473	1	0		-999999	12048	4484314	0	q	352731	4837045	-719387603	2.0.10.242	2.0.10.242	07-19-2016	7/19/2016 6:26:40 PM	14:26:40	2.0.10.147	5	NULL		490	scaleTrainingProc	The sourness of a lemon	ScaleTraining	15	2	5	NULL	NULL	NULL	NULL	NULL	NULL	NULL	NULL	NULL	NULL	NULL	NULL	NULL	NULL	NULL	NULL	NULL	NULL	NULL	NULL	NULL	NULL	NULL	NULL	NULL	NULL	NULL	NULL	NULL	NULL	NULL	NULL	NULL	NULL	NULL	NULL	NULL	NULL	NULL	NULL	NULL	NULL	NULL	NULL	NULL	NULL	NULL	NULL	NULL	NULL	NULL	NULL	NULL	NULL	NULL	NULL	NULL	NULL	NULL	NULL	NULL	NULL	NULL	NULL	NULL	NULL	NULL	NULL	NULL	NULL	NULL	NULL	NULL	NULL	NULL	NULL	NULL	NULL	NULL	NULL	NULL	NULL	NULL	NULL	NULL	NULL	NULL	NULL	NULL	NULL	NULL	NULL	NULL	NULL
TMA Blocker Split Nostril Olfactometer_Pilot 2	47	1	<?xml version="1.0"?>\n<Clock xmlns:dt="urn:schemas-microsoft-com:datatypes"><Description dt:dt="string">E-Prime Primary Realtime Clock</Description><StartTime><Timestamp dt:dt="int">0</Timestamp><DateUtc dt:dt="string">2016-07-19T18:26:39Z</DateUtc></StartTime><FrequencyChanges><FrequencyChange><Frequency dt:dt="r8">2793160000</Frequency><Timestamp dt:dt="r8">5.33298233245456E+15</Timestamp><Current dt:dt="r8">0</Current><DateUtc dt:dt="string">2016-07-19T18:26:39Z</DateUtc></FrequencyChange></FrequencyChanges></Clock>\n	TMA Blocker Split Nostril Olfactometer_Pilot 2-47-1	74.911	1.0.0.1473	1	0		-999999	12048	4484314	0	q	352731	4837045	-719387603	2.0.10.242	2.0.10.242	07-19-2016	7/19/2016 6:26:40 PM	14:26:40	2.0.10.147	6	NULL		532	ScaleTrainingProc	The coolness from a peppermint candy	ScaleTraining	9	2	6	NULL	NULL	NULL	NULL	NULL	NULL	NULL	NULL	NULL	NULL	NULL	NULL	NULL	NULL	NULL	NULL	NULL	NULL	NULL	NULL	NULL	NULL	NULL	NULL	NULL	NULL	NULL	NULL	NULL	NULL	NULL	NULL	NULL	NULL	NULL	NULL	NULL	NULL	NULL	NULL	NULL	NULL	NULL	NULL	NULL	NULL	NULL	NULL	NULL	NULL	NULL	NULL	NULL	NULL	NULL	NULL	NULL	NULL	NULL	NULL	NULL	NULL	NULL	NULL	NULL	NULL	NULL	NULL	NULL	NULL	NULL	NULL	NULL	NULL	NULL	NULL	NULL	NULL	NULL	NULL	NULL	NULL	NULL	NULL	NULL	NULL	NULL	NULL	NULL	NULL	NULL	NULL	NULL	NULL
TMA Blocker Split Nostril Olfactometer_Pilot 2	47	1	<?xml version="1.0"?>\n<Clock xmlns:dt="urn:schemas-microsoft-com:datatypes"><Description dt:dt="string">E-Prime Primary Realtime Clock</Description><StartTime><Timestamp dt:dt="int">0</Timestamp><DateUtc dt:dt="string">2016-07-19T18:26:39Z</DateUtc></StartTime><FrequencyChanges><FrequencyChange><Frequency dt:dt="r8">2793160000</Frequency><Timestamp dt:dt="r8">5.33298233245456E+15</Timestamp><Current dt:dt="r8">0</Current><DateUtc dt:dt="string">2016-07-19T18:26:39Z</DateUtc></FrequencyChange></FrequencyChanges></Clock>\n	TMA Blocker Split Nostril Olfactometer_Pilot 2-47-1	74.911	1.0.0.1473	1	0		-999999	12048	4484314	0	q	352731	4837045	-719387603	2.0.10.242	2.0.10.242	07-19-2016	7/19/2016 6:26:40 PM	14:26:40	2.0.10.147	7	NULL		232	ScaleTrainingProc	The brightest light you have ever seen	ScaleTraining	1	2	7	NULL	NULL	NULL	NULL	NULL	NULL	NULL	NULL	NULL	NULL	NULL	NULL	NULL	NULL	NULL	NULL	NULL	NULL	NULL	NULL	NULL	NULL	NULL	NULL	NULL	NULL	NULL	NULL	NULL	NULL	NULL	NULL	NULL	NULL	NULL	NULL	NULL	NULL	NULL	NULL	NULL	NULL	NULL	NULL	NULL	NULL	NULL	NULL	NULL	NULL	NULL	NULL	NULL	NULL	NULL	NULL	NULL	NULL	NULL	NULL	NULL	NULL	NULL	NULL	NULL	NULL	NULL	NULL	NULL	NULL	NULL	NULL	NULL	NULL	NULL	NULL	NULL	NULL	NULL	NULL	NULL	NULL	NULL	NULL	NULL	NULL	NULL	NULL	NULL	NULL	NULL	NULL	NULL	NULL
TMA Blocker Split Nostril Olfactometer_Pilot 2	47	1	<?xml version="1.0"?>\n<Clock xmlns:dt="urn:schemas-microsoft-com:datatypes"><Description dt:dt="string">E-Prime Primary Realtime Clock</Description><StartTime><Timestamp dt:dt="int">0</Timestamp><DateUtc dt:dt="string">2016-07-19T18:26:39Z</DateUtc></StartTime><FrequencyChanges><FrequencyChange><Frequency dt:dt="r8">2793160000</Frequency><Timestamp dt:dt="r8">5.33298233245456E+15</Timestamp><Current dt:dt="r8">0</Current><DateUtc dt:dt="string">2016-07-19T18:26:39Z</DateUtc></FrequencyChange></FrequencyChanges></Clock>\n	TMA Blocker Split Nostril Olfactometer_Pilot 2-47-1	74.911	1.0.0.1473	1	0		-999999	12048	4484314	0	q	352731	4837045	-719387603	2.0.10.242	2.0.10.242	07-19-2016	7/19/2016 6:26:40 PM	14:26:40	2.0.10.147	8	NULL		538	ScaleTrainingProc	The brightness of a dimly-lit room	ScaleTraining	11	2	8	NULL	NULL	NULL	NULL	NULL	NULL	NULL	NULL	NULL	NULL	NULL	NULL	NULL	NULL	NULL	NULL	NULL	NULL	NULL	NULL	NULL	NULL	NULL	NULL	NULL	NULL	NULL	NULL	NULL	NULL	NULL	NULL	NULL	NULL	NULL	NULL	NULL	NULL	NULL	NULL	NULL	NULL	NULL	NULL	NULL	NULL	NULL	NULL	NULL	NULL	NULL	NULL	NULL	NULL	NULL	NULL	NULL	NULL	NULL	NULL	NULL	NULL	NULL	NULL	NULL	NULL	NULL	NULL	NULL	NULL	NULL	NULL	NULL	NULL	NULL	NULL	NULL	NULL	NULL	NULL	NULL	NULL	NULL	NULL	NULL	NULL	NULL	NULL	NULL	NULL	NULL	NULL	NULL	NULL
TMA Blocker Split Nostril Olfactometer_Pilot 2	47	1	<?xml version="1.0"?>\n<Clock xmlns:dt="urn:schemas-microsoft-com:datatypes"><Description dt:dt="string">E-Prime Primary Realtime Clock</Description><StartTime><Timestamp dt:dt="int">0</Timestamp><DateUtc dt:dt="string">2016-07-19T18:26:39Z</DateUtc></StartTime><FrequencyChanges><FrequencyChange><Frequency dt:dt="r8">2793160000</Frequency><Timestamp dt:dt="r8">5.33298233245456E+15</Timestamp><Current dt:dt="r8">0</Current><DateUtc dt:dt="string">2016-07-19T18:26:39Z</DateUtc></FrequencyChange></FrequencyChanges></Clock>\n	TMA Blocker Split Nostril Olfactometer_Pilot 2-47-1	74.911	1.0.0.1473	1	0		-999999	12048	4484314	0	q	352731	4837045	-719387603	2.0.10.242	2.0.10.242	07-19-2016	7/19/2016 6:26:40 PM	14:26:40	2.0.10.147	9	NULL		433	ScaleTrainingProc	The loudness of a conversation	ScaleTraining	7	2	9	NULL	NULL	NULL	NULL	NULL	NULL	NULL	NULL	NULL	NULL	NULL	NULL	NULL	NULL	NULL	NULL	NULL	NULL	NULL	NULL	NULL	NULL	NULL	NULL	NULL	NULL	NULL	NULL	NULL	NULL	NULL	NULL	NULL	NULL	NULL	NULL	NULL	NULL	NULL	NULL	NULL	NULL	NULL	NULL	NULL	NULL	NULL	NULL	NULL	NULL	NULL	NULL	NULL	NULL	NULL	NULL	NULL	NULL	NULL	NULL	NULL	NULL	NULL	NULL	NULL	NULL	NULL	NULL	NULL	NULL	NULL	NULL	NULL	NULL	NULL	NULL	NULL	NULL	NULL	NULL	NULL	NULL	NULL	NULL	NULL	NULL	NULL	NULL	NULL	NULL	NULL	NULL	NULL	NULL
TMA Blocker Split Nostril Olfactometer_Pilot 2	47	1	<?xml version="1.0"?>\n<Clock xmlns:dt="urn:schemas-microsoft-com:datatypes"><Description dt:dt="string">E-Prime Primary Realtime Clock</Description><StartTime><Timestamp dt:dt="int">0</Timestamp><DateUtc dt:dt="string">2016-07-19T18:26:39Z</DateUtc></StartTime><FrequencyChanges><FrequencyChange><Frequency dt:dt="r8">2793160000</Frequency><Timestamp dt:dt="r8">5.33298233245456E+15</Timestamp><Current dt:dt="r8">0</Current><DateUtc dt:dt="string">2016-07-19T18:26:39Z</DateUtc></FrequencyChange></FrequencyChanges></Clock>\n	TMA Blocker Split Nostril Olfactometer_Pilot 2-47-1	74.911	1.0.0.1473	1	0		-999999	12048	4484314	0	q	352731	4837045	-719387603	2.0.10.242	2.0.10.242	07-19-2016	7/19/2016 6:26:40 PM	14:26:40	2.0.10.147	10	NULL		419	ScaleTrainingProc	The pain from biting your tongue	ScaleTraining	4	2	10	NULL	NULL	NULL	NULL	NULL	NULL	NULL	NULL	NULL	NULL	NULL	NULL	NULL	NULL	NULL	NULL	NULL	NULL	NULL	NULL	NULL	NULL	NULL	NULL	NULL	NULL	NULL	NULL	NULL	NULL	NULL	NULL	NULL	NULL	NULL	NULL	NULL	NULL	NULL	NULL	NULL	NULL	NULL	NULL	NULL	NULL	NULL	NULL	NULL	NULL	NULL	NULL	NULL	NULL	NULL	NULL	NULL	NULL	NULL	NULL	NULL	NULL	NULL	NULL	NULL	NULL	NULL	NULL	NULL	NULL	NULL	NULL	NULL	NULL	NULL	NULL	NULL	NULL	NULL	NULL	NULL	NULL	NULL	NULL	NULL	NULL	NULL	NULL	NULL	NULL	NULL	NULL	NULL	NULL
TMA Blocker Split Nostril Olfactometer_Pilot 2	47	1	<?xml version="1.0"?>\n<Clock xmlns:dt="urn:schemas-microsoft-com:datatypes"><Description dt:dt="string">E-Prime Primary Realtime Clock</Description><StartTime><Timestamp dt:dt="int">0</Timestamp><DateUtc dt:dt="string">2016-07-19T18:26:39Z</DateUtc></StartTime><FrequencyChanges><FrequencyChange><Frequency dt:dt="r8">2793160000</Frequency><Timestamp dt:dt="r8">5.33298233245456E+15</Timestamp><Current dt:dt="r8">0</Current><DateUtc dt:dt="string">2016-07-19T18:26:39Z</DateUtc></FrequencyChange></FrequencyChanges></Clock>\n	TMA Blocker Split Nostril Olfactometer_Pilot 2-47-1	74.911	1.0.0.1473	1	0		-999999	12048	4484314	0	q	352731	4837045	-719387603	2.0.10.242	2.0.10.242	07-19-2016	7/19/2016 6:26:40 PM	14:26:40	2.0.10.147	11	NULL		555	ScaleTrainingProc	The loudness of a whisper	ScaleTraining	8	2	11	NULL	NULL	NULL	NULL	NULL	NULL	NULL	NULL	NULL	NULL	NULL	NULL	NULL	NULL	NULL	NULL	NULL	NULL	NULL	NULL	NULL	NULL	NULL	NULL	NULL	NULL	NULL	NULL	NULL	NULL	NULL	NULL	NULL	NULL	NULL	NULL	NULL	NULL	NULL	NULL	NULL	NULL	NULL	NULL	NULL	NULL	NULL	NULL	NULL	NULL	NULL	NULL	NULL	NULL	NULL	NULL	NULL	NULL	NULL	NULL	NULL	NULL	NULL	NULL	NULL	NULL	NULL	NULL	NULL	NULL	NULL	NULL	NULL	NULL	NULL	NULL	NULL	NULL	NULL	NULL	NULL	NULL	NULL	NULL	NULL	NULL	NULL	NULL	NULL	NULL	NULL	NULL	NULL	NULL
TMA Blocker Split Nostril Olfactometer_Pilot 2	47	1	<?xml version="1.0"?>\n<Clock xmlns:dt="urn:schemas-microsoft-com:datatypes"><Description dt:dt="string">E-Prime Primary Realtime Clock</Description><StartTime><Timestamp dt:dt="int">0</Timestamp><DateUtc dt:dt="string">2016-07-19T18:26:39Z</DateUtc></StartTime><FrequencyChanges><FrequencyChange><Frequency dt:dt="r8">2793160000</Frequency><Timestamp dt:dt="r8">5.33298233245456E+15</Timestamp><Current dt:dt="r8">0</Current><DateUtc dt:dt="string">2016-07-19T18:26:39Z</DateUtc></FrequencyChange></FrequencyChanges></Clock>\n	TMA Blocker Split Nostril Olfactometer_Pilot 2-47-1	74.911	1.0.0.1473	1	0		-999999	12048	4484314	0	q	352731	4837045	-719387603	2.0.10.242	2.0.10.242	07-19-2016	7/19/2016 6:26:40 PM	14:26:40	2.0.10.147	12	NULL		419	ScaleTrainingProc	The brigtness of a well-lit room	ScaleTraining	5	2	12	NULL	NULL	NULL	NULL	NULL	NULL	NULL	NULL	NULL	NULL	NULL	NULL	NULL	NULL	NULL	NULL	NULL	NULL	NULL	NULL	NULL	NULL	NULL	NULL	NULL	NULL	NULL	NULL	NULL	NULL	NULL	NULL	NULL	NULL	NULL	NULL	NULL	NULL	NULL	NULL	NULL	NULL	NULL	NULL	NULL	NULL	NULL	NULL	NULL	NULL	NULL	NULL	NULL	NULL	NULL	NULL	NULL	NULL	NULL	NULL	NULL	NULL	NULL	NULL	NULL	NULL	NULL	NULL	NULL	NULL	NULL	NULL	NULL	NULL	NULL	NULL	NULL	NULL	NULL	NULL	NULL	NULL	NULL	NULL	NULL	NULL	NULL	NULL	NULL	NULL	NULL	NULL	NULL	NULL
TMA Blocker Split Nostril Olfactometer_Pilot 2	47	1	<?xml version="1.0"?>\n<Clock xmlns:dt="urn:schemas-microsoft-com:datatypes"><Description dt:dt="string">E-Prime Primary Realtime Clock</Description><StartTime><Timestamp dt:dt="int">0</Timestamp><DateUtc dt:dt="string">2016-07-19T18:26:39Z</DateUtc></StartTime><FrequencyChanges><FrequencyChange><Frequency dt:dt="r8">2793160000</Frequency><Timestamp dt:dt="r8">5.33298233245456E+15</Timestamp><Current dt:dt="r8">0</Current><DateUtc dt:dt="string">2016-07-19T18:26:39Z</DateUtc></FrequencyChange></FrequencyChanges></Clock>\n	TMA Blocker Split Nostril Olfactometer_Pilot 2-47-1	74.911	1.0.0.1473	1	0		-999999	12048	4484314	0	q	352731	4837045	-719387603	2.0.10.242	2.0.10.242	07-19-2016	7/19/2016 6:26:40 PM	14:26:40	2.0.10.147	13	NULL		482	ScaleTrainingProc	The strength of the odor (intensity) of a rose	ScaleTraining	13	2	13	NULL	NULL	NULL	NULL	NULL	NULL	NULL	NULL	NULL	NULL	NULL	NULL	NULL	NULL	NULL	NULL	NULL	NULL	NULL	NULL	NULL	NULL	NULL	NULL	NULL	NULL	NULL	NULL	NULL	NULL	NULL	NULL	NULL	NULL	NULL	NULL	NULL	NULL	NULL	NULL	NULL	NULL	NULL	NULL	NULL	NULL	NULL	NULL	NULL	NULL	NULL	NULL	NULL	NULL	NULL	NULL	NULL	NULL	NULL	NULL	NULL	NULL	NULL	NULL	NULL	NULL	NULL	NULL	NULL	NULL	NULL	NULL	NULL	NULL	NULL	NULL	NULL	NULL	NULL	NULL	NULL	NULL	NULL	NULL	NULL	NULL	NULL	NULL	NULL	NULL	NULL	NULL	NULL	NULL
TMA Blocker Split Nostril Olfactometer_Pilot 2	47	1	<?xml version="1.0"?>\n<Clock xmlns:dt="urn:schemas-microsoft-com:datatypes"><Description dt:dt="string">E-Prime Primary Realtime Clock</Description><StartTime><Timestamp dt:dt="int">0</Timestamp><DateUtc dt:dt="string">2016-07-19T18:26:39Z</DateUtc></StartTime><FrequencyChanges><FrequencyChange><Frequency dt:dt="r8">2793160000</Frequency><Timestamp dt:dt="r8">5.33298233245456E+15</Timestamp><Current dt:dt="r8">0</Current><DateUtc dt:dt="string">2016-07-19T18:26:39Z</DateUtc></FrequencyChange></FrequencyChanges></Clock>\n	TMA Blocker Split Nostril Olfactometer_Pilot 2-47-1	74.911	1.0.0.1473	1	0		-999999	12048	4484314	0	q	352731	4837045	-719387603	2.0.10.242	2.0.10.242	07-19-2016	7/19/2016 6:26:40 PM	14:26:40	2.0.10.147	14	NULL		276	ScaleTrainingProc	The strongest odor you have ever smelled	ScaleTraining	14	2	14	NULL	NULL	NULL	NULL	NULL	NULL	NULL	NULL	NULL	NULL	NULL	NULL	NULL	NULL	NULL	NULL	NULL	NULL	NULL	NULL	NULL	NULL	NULL	NULL	NULL	NULL	NULL	NULL	NULL	NULL	NULL	NULL	NULL	NULL	NULL	NULL	NULL	NULL	NULL	NULL	NULL	NULL	NULL	NULL	NULL	NULL	NULL	NULL	NULL	NULL	NULL	NULL	NULL	NULL	NULL	NULL	NULL	NULL	NULL	NULL	NULL	NULL	NULL	NULL	NULL	NULL	NULL	NULL	NULL	NULL	NULL	NULL	NULL	NULL	NULL	NULL	NULL	NULL	NULL	NULL	NULL	NULL	NULL	NULL	NULL	NULL	NULL	NULL	NULL	NULL	NULL	NULL	NULL	NULL
TMA Blocker Split Nostril Olfactometer_Pilot 2	47	1	<?xml version="1.0"?>\n<Clock xmlns:dt="urn:schemas-microsoft-com:datatypes"><Description dt:dt="string">E-Prime Primary Realtime Clock</Description><StartTime><Timestamp dt:dt="int">0</Timestamp><DateUtc dt:dt="string">2016-07-19T18:26:39Z</DateUtc></StartTime><FrequencyChanges><FrequencyChange><Frequency dt:dt="r8">2793160000</Frequency><Timestamp dt:dt="r8">5.33298233245456E+15</Timestamp><Current dt:dt="r8">0</Current><DateUtc dt:dt="string">2016-07-19T18:26:39Z</DateUtc></FrequencyChange></FrequencyChanges></Clock>\n	TMA Blocker Split Nostril Olfactometer_Pilot 2-47-1	74.911	1.0.0.1473	1	0		-999999	12048	4484314	0	q	352731	4837045	-719387603	2.0.10.242	2.0.10.242	07-19-2016	7/19/2016 6:26:40 PM	14:26:40	2.0.10.147	15	NULL		192	ScaleTrainingProc	The loudest sound you have ever heard	ScaleTraining	2	2	15	NULL	NULL	NULL	NULL	NULL	NULL	NULL	NULL	NULL	NULL	NULL	NULL	NULL	NULL	NULL	NULL	NULL	NULL	NULL	NULL	NULL	NULL	NULL	NULL	NULL	NULL	NULL	NULL	NULL	NULL	NULL	NULL	NULL	NULL	NULL	NULL	NULL	NULL	NULL	NULL	NULL	NULL	NULL	NULL	NULL	NULL	NULL	NULL	NULL	NULL	NULL	NULL	NULL	NULL	NULL	NULL	NULL	NULL	NULL	NULL	NULL	NULL	NULL	NULL	NULL	NULL	NULL	NULL	NULL	NULL	NULL	NULL	NULL	NULL	NULL	NULL	NULL	NULL	NULL	NULL	NULL	NULL	NULL	NULL	NULL	NULL	NULL	NULL	NULL	NULL	NULL	NULL	NULL	NULL
TMA Blocker Split Nostril Olfactometer_Pilot 2	47	1	<?xml version="1.0"?>\n<Clock xmlns:dt="urn:schemas-microsoft-com:datatypes"><Description dt:dt="string">E-Prime Primary Realtime Clock</Description><StartTime><Timestamp dt:dt="int">0</Timestamp><DateUtc dt:dt="string">2016-07-19T18:26:39Z</DateUtc></StartTime><FrequencyChanges><FrequencyChange><Frequency dt:dt="r8">2793160000</Frequency><Timestamp dt:dt="r8">5.33298233245456E+15</Timestamp><Current dt:dt="r8">0</Current><DateUtc dt:dt="string">2016-07-19T18:26:39Z</DateUtc></FrequencyChange></FrequencyChanges></Clock>\n	TMA Blocker Split Nostril Olfactometer_Pilot 2-47-1	74.911	1.0.0.1473	1	0		-999999	12048	4484314	0	q	352731	4837045	-719387603	2.0.10.242	2.0.10.242	07-19-2016	7/19/2016 6:26:40 PM	14:26:40	2.0.10.147	16	NULL		NULL	SniffingInstructionsProc	NULL	SniffingInstructionsList	NULL	NULL	NULL	1	1	1	NULL	NULL	NULL	NULL	NULL	NULL	NULL	NULL	NULL	NULL	NULL	NULL	NULL	1	NULL	NULL		NULL	NULL	NULL	NULL	NULL	1	1	1	PrepareProc	NULL	NULL	NULL	NULL	NULL	NULL	NULL	NULL	NULL	NULL	NULL	NULL	NULL	NULL	NULL	NULL	NULL	Prepare	NULL	NULL	NULL	NULL	NULL	NULL	NULL	NULL	NULL	NULL	NULL	NULL	NULL	NULL	NULL	NULL	NULL	NULL	NULL	NULL	NULL	NULL	NULL	NULL	NULL	NULL	NULL	NULL	NULL	NULL	NULL	NULL	NULL	NULL	NULL	NULL	NULL	NULL	NULL	NULL	NULL	NULL	NULL	NULL	NULL	NULL	NULL
TMA Blocker Split Nostril Olfactometer_Pilot 2	47	1	<?xml version="1.0"?>\n<Clock xmlns:dt="urn:schemas-microsoft-com:datatypes"><Description dt:dt="string">E-Prime Primary Realtime Clock</Description><StartTime><Timestamp dt:dt="int">0</Timestamp><DateUtc dt:dt="string">2016-07-19T18:26:39Z</DateUtc></StartTime><FrequencyChanges><FrequencyChange><Frequency dt:dt="r8">2793160000</Frequency><Timestamp dt:dt="r8">5.33298233245456E+15</Timestamp><Current dt:dt="r8">0</Current><DateUtc dt:dt="string">2016-07-19T18:26:39Z</DateUtc></FrequencyChange></FrequencyChanges></Clock>\n	TMA Blocker Split Nostril Olfactometer_Pilot 2-47-1	74.911	1.0.0.1473	1	0		-999999	12048	4484314	0	q	352731	4837045	-719387603	2.0.10.242	2.0.10.242	07-19-2016	7/19/2016 6:26:40 PM	14:26:40	2.0.10.147	17	GREEN	NULL	NULL	TestProcA	NULL	Train1	NULL	NULL	NULL	NULL	NULL	NULL	NULL	NULL	NULL	NULL	NULL	NULL	Yes	1	1	1	NULL	NULL	NULL	1	NULL	Fishy	Green	485	NULL	3	24	NULL	NULL	NULL	NULL	training	Strength of the Odor (How fishy is it?)	NULL	NULL	NULL	NULL	NULL	NULL	NULL	NULL	NULL	NULL	NULL	NULL	NULL	NULL	NULL	NULL	TrainList	1	1	1	NULL	NULL	NULL	NULL	NULL	NULL	NULL	NULL	NULL	1	NULL	NULL	NULL	NULL	NULL	NULL	Green	NULL	NULL	NULL	NULL	NULL	NULL	NULL	NULL	NULL	NULL	NULL	NULL	1	2	2	PrepareProc	Strength of the Odor (How fishy is it?)	Prepare	NULL	NULL	NULL	NULL	NULL	NULL	NULL	NULL	NULL
TMA Blocker Split Nostril Olfactometer_Pilot 2	47	1	<?xml version="1.0"?>\n<Clock xmlns:dt="urn:schemas-microsoft-com:datatypes"><Description dt:dt="string">E-Prime Primary Realtime Clock</Description><StartTime><Timestamp dt:dt="int">0</Timestamp><DateUtc dt:dt="string">2016-07-19T18:26:39Z</DateUtc></StartTime><FrequencyChanges><FrequencyChange><Frequency dt:dt="r8">2793160000</Frequency><Timestamp dt:dt="r8">5.33298233245456E+15</Timestamp><Current dt:dt="r8">0</Current><DateUtc dt:dt="string">2016-07-19T18:26:39Z</DateUtc></FrequencyChange></FrequencyChanges></Clock>\n	TMA Blocker Split Nostril Olfactometer_Pilot 2-47-1	74.911	1.0.0.1473	1	0		-999999	12048	4484314	0	q	352731	4837045	-719387603	2.0.10.242	2.0.10.242	07-19-2016	7/19/2016 6:26:40 PM	14:26:40	2.0.10.147	17	GREEN	NULL	NULL	TestProcA	NULL	Train1	NULL	NULL	NULL	NULL	NULL	NULL	NULL	NULL	NULL	NULL	NULL	NULL	Yes	1	1	1	NULL	NULL	NULL	2	NULL	Green	Green	492	NULL	72	24	NULL	NULL	NULL	NULL	training	Strength of the Odor (How green is it?)	NULL	NULL	NULL	NULL	NULL	NULL	NULL	NULL	NULL	NULL	NULL	NULL	NULL	NULL	NULL	NULL	TrainList	2	1	2	NULL	NULL	NULL	NULL	NULL	NULL	NULL	NULL	NULL	1	NULL	NULL	NULL	NULL	NULL	NULL	Green	NULL	NULL	NULL	NULL	NULL	NULL	NULL	NULL	NULL	NULL	NULL	NULL	1	3	3	PrepareProc	Strength of the Odor (How green is it?)	Prepare	NULL	NULL	NULL	NULL	NULL	NULL	NULL	NULL	NULL
TMA Blocker Split Nostril Olfactometer_Pilot 2	47	1	<?xml version="1.0"?>\n<Clock xmlns:dt="urn:schemas-microsoft-com:datatypes"><Description dt:dt="string">E-Prime Primary Realtime Clock</Description><StartTime><Timestamp dt:dt="int">0</Timestamp><DateUtc dt:dt="string">2016-07-19T18:26:39Z</DateUtc></StartTime><FrequencyChanges><FrequencyChange><Frequency dt:dt="r8">2793160000</Frequency><Timestamp dt:dt="r8">5.33298233245456E+15</Timestamp><Current dt:dt="r8">0</Current><DateUtc dt:dt="string">2016-07-19T18:26:39Z</DateUtc></FrequencyChange></FrequencyChanges></Clock>\n	TMA Blocker Split Nostril Olfactometer_Pilot 2-47-1	74.911	1.0.0.1473	1	0		-999999	12048	4484314	0	q	352731	4837045	-719387603	2.0.10.242	2.0.10.242	07-19-2016	7/19/2016 6:26:40 PM	14:26:40	2.0.10.147	17	GREEN	NULL	NULL	TestProcA	NULL	Train1	NULL	NULL	NULL	NULL	NULL	NULL	NULL	NULL	NULL	NULL	NULL	NULL	Yes	1	1	1	NULL	NULL	NULL	3	2	NULL	Green	477	NULL	3	24	Fishy	NULL	NULL	NULL	Quiz	How strong is the odor?	1	1	1	NULL	NULL	NULL	0	2	-999999	39	1942793	0	1	7983	1950776	NULL	QuizList	NULL	NULL	NULL	NULL	NULL	NULL	NULL	NULL	NULL	NULL	NULL	NULL	1	NULL	2	NULL	NULL	NULL	NULL	Green	NULL	NULL	NULL	NULL	NULL	NULL	NULL	NULL	NULL	NULL	NULL	NULL	1	4	4	PrepareProc	How strong is the odor?	Prepare	NULL	NULL	NULL	NULL	NULL	NULL	NULL	NULL	NULL
TMA Blocker Split Nostril Olfactometer_Pilot 2	47	1	<?xml version="1.0"?>\n<Clock xmlns:dt="urn:schemas-microsoft-com:datatypes"><Description dt:dt="string">E-Prime Primary Realtime Clock</Description><StartTime><Timestamp dt:dt="int">0</Timestamp><DateUtc dt:dt="string">2016-07-19T18:26:39Z</DateUtc></StartTime><FrequencyChanges><FrequencyChange><Frequency dt:dt="r8">2793160000</Frequency><Timestamp dt:dt="r8">5.33298233245456E+15</Timestamp><Current dt:dt="r8">0</Current><DateUtc dt:dt="string">2016-07-19T18:26:39Z</DateUtc></FrequencyChange></FrequencyChanges></Clock>\n	TMA Blocker Split Nostril Olfactometer_Pilot 2-47-1	74.911	1.0.0.1473	1	0		-999999	12048	4484314	0	q	352731	4837045	-719387603	2.0.10.242	2.0.10.242	07-19-2016	7/19/2016 6:26:40 PM	14:26:40	2.0.10.147	17	GREEN	NULL	NULL	TestProcA	NULL	Train1	NULL	NULL	NULL	NULL	NULL	NULL	NULL	NULL	NULL	NULL	NULL	NULL	Yes	1	1	1	NULL	NULL	NULL	4	1	NULL	Green	505	NULL	72	24	Green	NULL	NULL	NULL	Quiz	How strong is the odor?	2	1	2	NULL	NULL	NULL	1	1	-999999	39	1999446	0	1	3792	2003238	NULL	QuizList	NULL	NULL	NULL	NULL	NULL	NULL	NULL	NULL	NULL	NULL	NULL	NULL	1	NULL	1	NULL	NULL	NULL	NULL	Green	NULL	NULL	NULL	NULL	NULL	NULL	NULL	NULL	NULL	NULL	NULL	NULL	1	5	5	PrepareProc	How strong is the odor?	Prepare	NULL	NULL	NULL	NULL	NULL	NULL	NULL	NULL	NULL
TMA Blocker Split Nostril Olfactometer_Pilot 2	47	1	<?xml version="1.0"?>\n<Clock xmlns:dt="urn:schemas-microsoft-com:datatypes"><Description dt:dt="string">E-Prime Primary Realtime Clock</Description><StartTime><Timestamp dt:dt="int">0</Timestamp><DateUtc dt:dt="string">2016-07-19T18:26:39Z</DateUtc></StartTime><FrequencyChanges><FrequencyChange><Frequency dt:dt="r8">2793160000</Frequency><Timestamp dt:dt="r8">5.33298233245456E+15</Timestamp><Current dt:dt="r8">0</Current><DateUtc dt:dt="string">2016-07-19T18:26:39Z</DateUtc></FrequencyChange></FrequencyChanges></Clock>\n	TMA Blocker Split Nostril Olfactometer_Pilot 2-47-1	74.911	1.0.0.1473	1	0		-999999	12048	4484314	0	q	352731	4837045	-719387603	2.0.10.242	2.0.10.242	07-19-2016	7/19/2016 6:26:40 PM	14:26:40	2.0.10.147	17	GREEN	NULL	NULL	TestProcA	NULL	Train1	NULL	NULL	NULL	NULL	NULL	NULL	NULL	NULL	NULL	NULL	NULL	NULL	Yes	1	1	1	NULL	NULL	NULL	5	2	NULL	Green	466	NULL	66	9	Fishy	NULL	NULL	NULL	Quiz	How strong is the odor?	4	1	3	NULL	NULL	NULL	1	2	-999999	39	2050293	0	2	3608	2053901	NULL	QuizList	NULL	NULL	NULL	NULL	NULL	NULL	NULL	NULL	NULL	NULL	NULL	NULL	1	NULL	2	NULL	NULL	NULL	NULL	Green	NULL	NULL	NULL	NULL	NULL	NULL	NULL	NULL	NULL	NULL	NULL	NULL	1	6	6	PrepareProc	How strong is the odor?	Prepare	NULL	NULL	NULL	NULL	NULL	NULL	NULL	NULL	NULL
TMA Blocker Split Nostril Olfactometer_Pilot 2	47	1	<?xml version="1.0"?>\n<Clock xmlns:dt="urn:schemas-microsoft-com:datatypes"><Description dt:dt="string">E-Prime Primary Realtime Clock</Description><StartTime><Timestamp dt:dt="int">0</Timestamp><DateUtc dt:dt="string">2016-07-19T18:26:39Z</DateUtc></StartTime><FrequencyChanges><FrequencyChange><Frequency dt:dt="r8">2793160000</Frequency><Timestamp dt:dt="r8">5.33298233245456E+15</Timestamp><Current dt:dt="r8">0</Current><DateUtc dt:dt="string">2016-07-19T18:26:39Z</DateUtc></FrequencyChange></FrequencyChanges></Clock>\n	TMA Blocker Split Nostril Olfactometer_Pilot 2-47-1	74.911	1.0.0.1473	1	0		-999999	12048	4484314	0	q	352731	4837045	-719387603	2.0.10.242	2.0.10.242	07-19-2016	7/19/2016 6:26:40 PM	14:26:40	2.0.10.147	17	GREEN	NULL	NULL	TestProcA	NULL	Train1	NULL	NULL	NULL	NULL	NULL	NULL	NULL	NULL	NULL	NULL	NULL	NULL	Yes	1	1	1	NULL	NULL	NULL	6	1	NULL	Green	460	NULL	66	48	Green	NULL	NULL	NULL	Quiz	How strong is the odor?	3	1	4	NULL	NULL	NULL	0	1	-999999	39	2101834	0	2	3945	2105779	NULL	QuizList	NULL	NULL	NULL	NULL	NULL	NULL	NULL	NULL	NULL	NULL	NULL	NULL	1	NULL	1	NULL	NULL	NULL	NULL	Green	NULL	NULL	NULL	NULL	NULL	NULL	NULL	NULL	NULL	NULL	NULL	NULL	1	7	7	PrepareProc	How strong is the odor?	Prepare	NULL	NULL	NULL	NULL	NULL	NULL	NULL	NULL	NULL
TMA Blocker Split Nostril Olfactometer_Pilot 2	47	1	<?xml version="1.0"?>\n<Clock xmlns:dt="urn:schemas-microsoft-com:datatypes"><Description dt:dt="string">E-Prime Primary Realtime Clock</Description><StartTime><Timestamp dt:dt="int">0</Timestamp><DateUtc dt:dt="string">2016-07-19T18:26:39Z</DateUtc></StartTime><FrequencyChanges><FrequencyChange><Frequency dt:dt="r8">2793160000</Frequency><Timestamp dt:dt="r8">5.33298233245456E+15</Timestamp><Current dt:dt="r8">0</Current><DateUtc dt:dt="string">2016-07-19T18:26:39Z</DateUtc></FrequencyChange></FrequencyChanges></Clock>\n	TMA Blocker Split Nostril Olfactometer_Pilot 2-47-1	74.911	1.0.0.1473	1	0		-999999	12048	4484314	0	q	352731	4837045	-719387603	2.0.10.242	2.0.10.242	07-19-2016	7/19/2016 6:26:40 PM	14:26:40	2.0.10.147	18	GREEN	NULL	NULL	BlockProcA	NULL	Test1	NULL	NULL	NULL	NULL	NULL	NULL	1	1	1	NULL	NULL	NULL	No	NULL	NULL	NULL	NULL	NULL	NULL	1	NULL	NULL	NULL	NULL	TMA	3	24	NULL	NULL	NULL	NULL	TrialProc	NULL	NULL	NULL	NULL	NULL	NULL	NULL	NULL	NULL	NULL	NULL	NULL	NULL	NULL	NULL	NULL	Blank	TrialList	NULL	NULL	NULL	NULL	NULL	NULL	1	1	1	NULL	NULL	NULL	1	NULL	NULL	NULL	NULL	NULL	NULL	NULL	NULL	NULL	NULL	NULL	NULL	NULL	NULL	NULL	NULL	NULL	NULL	NULL	1	8	8	PrepareProc	NULL	Prepare	NULL	NULL	NULL	NULL	NULL	NULL	NULL	NULL	NULL
TMA Blocker Split Nostril Olfactometer_Pilot 2	47	1	<?xml version="1.0"?>\n<Clock xmlns:dt="urn:schemas-microsoft-com:datatypes"><Description dt:dt="string">E-Prime Primary Realtime Clock</Description><StartTime><Timestamp dt:dt="int">0</Timestamp><DateUtc dt:dt="string">2016-07-19T18:26:39Z</DateUtc></StartTime><FrequencyChanges><FrequencyChange><Frequency dt:dt="r8">2793160000</Frequency><Timestamp dt:dt="r8">5.33298233245456E+15</Timestamp><Current dt:dt="r8">0</Current><DateUtc dt:dt="string">2016-07-19T18:26:39Z</DateUtc></FrequencyChange></FrequencyChanges></Clock>\n	TMA Blocker Split Nostril Olfactometer_Pilot 2-47-1	74.911	1.0.0.1473	1	0		-999999	12048	4484314	0	q	352731	4837045	-719387603	2.0.10.242	2.0.10.242	07-19-2016	7/19/2016 6:26:40 PM	14:26:40	2.0.10.147	18	GREEN	NULL	NULL	BlockProcA	NULL	Test1	NULL	NULL	NULL	NULL	NULL	NULL	1	1	1	NULL	NULL	NULL	No	NULL	NULL	NULL	NULL	NULL	NULL	1	NULL	NULL	NULL	NULL	TMA	3	24	NULL	NULL	NULL	NULL	TrialProc	NULL	NULL	NULL	NULL	NULL	NULL	NULL	NULL	NULL	NULL	NULL	NULL	NULL	NULL	NULL	NULL	Blank	TrialList	NULL	NULL	NULL	NULL	NULL	NULL	1	1	1	NULL	NULL	NULL	2	NULL	NULL	1	1	1	NULL	Green	467	535	NULL	NULL	NULL	NULL	NULL	NULL	NULL	NULL	NULL	1	NULL	NULL	NULL	ExperimentProc	How intense is the odor?	Experiment	NULL	NULL	NULL	NULL	NULL	NULL	NULL	NULL	?
TMA Blocker Split Nostril Olfactometer_Pilot 2	47	1	<?xml version="1.0"?>\n<Clock xmlns:dt="urn:schemas-microsoft-com:datatypes"><Description dt:dt="string">E-Prime Primary Realtime Clock</Description><StartTime><Timestamp dt:dt="int">0</Timestamp><DateUtc dt:dt="string">2016-07-19T18:26:39Z</DateUtc></StartTime><FrequencyChanges><FrequencyChange><Frequency dt:dt="r8">2793160000</Frequency><Timestamp dt:dt="r8">5.33298233245456E+15</Timestamp><Current dt:dt="r8">0</Current><DateUtc dt:dt="string">2016-07-19T18:26:39Z</DateUtc></FrequencyChange></FrequencyChanges></Clock>\n	TMA Blocker Split Nostril Olfactometer_Pilot 2-47-1	74.911	1.0.0.1473	1	0		-999999	12048	4484314	0	q	352731	4837045	-719387603	2.0.10.242	2.0.10.242	07-19-2016	7/19/2016 6:26:40 PM	14:26:40	2.0.10.147	18	GREEN	NULL	NULL	BlockProcA	NULL	Test1	NULL	NULL	NULL	NULL	NULL	NULL	1	1	1	NULL	NULL	NULL	No	NULL	NULL	NULL	NULL	NULL	NULL	1	NULL	NULL	NULL	NULL	TMA	3	24	NULL	NULL	NULL	NULL	TrialProc	NULL	NULL	NULL	NULL	NULL	NULL	NULL	NULL	NULL	NULL	NULL	NULL	NULL	NULL	NULL	NULL	Blank	TrialList	NULL	NULL	NULL	NULL	NULL	NULL	1	1	1	NULL	NULL	NULL	3	NULL	2	NULL	NULL	NULL	NULL	NULL	NULL	NULL	0	2	-999999	13	2290016	0	1	5638	2295654	NULL	NULL	NULL	NULL	SongTrial	NULL	SoundList	NULL	NULL	2	1	1	NULL	NULL	NULL	NULL
TMA Blocker Split Nostril Olfactometer_Pilot 2	47	1	<?xml version="1.0"?>\n<Clock xmlns:dt="urn:schemas-microsoft-com:datatypes"><Description dt:dt="string">E-Prime Primary Realtime Clock</Description><StartTime><Timestamp dt:dt="int">0</Timestamp><DateUtc dt:dt="string">2016-07-19T18:26:39Z</DateUtc></StartTime><FrequencyChanges><FrequencyChange><Frequency dt:dt="r8">2793160000</Frequency><Timestamp dt:dt="r8">5.33298233245456E+15</Timestamp><Current dt:dt="r8">0</Current><DateUtc dt:dt="string">2016-07-19T18:26:39Z</DateUtc></FrequencyChange></FrequencyChanges></Clock>\n	TMA Blocker Split Nostril Olfactometer_Pilot 2-47-1	74.911	1.0.0.1473	1	0		-999999	12048	4484314	0	q	352731	4837045	-719387603	2.0.10.242	2.0.10.242	07-19-2016	7/19/2016 6:26:40 PM	14:26:40	2.0.10.147	18	GREEN	NULL	NULL	BlockProcA	NULL	Test1	NULL	NULL	NULL	NULL	NULL	NULL	1	1	1	NULL	NULL	NULL	No	NULL	NULL	NULL	NULL	NULL	NULL	2	NULL	NULL	NULL	NULL	Blank	66	9	NULL	NULL	NULL	NULL	TrialProc	NULL	NULL	NULL	NULL	NULL	NULL	NULL	NULL	NULL	NULL	NULL	NULL	NULL	NULL	NULL	NULL	TMA	TrialList	NULL	NULL	NULL	NULL	NULL	NULL	2	1	2	NULL	NULL	NULL	1	NULL	NULL	NULL	NULL	NULL	NULL	NULL	NULL	NULL	NULL	NULL	NULL	NULL	NULL	NULL	NULL	NULL	NULL	NULL	1	9	9	PrepareProc	NULL	Prepare	NULL	NULL	NULL	NULL	NULL	NULL	NULL	NULL	NULL
TMA Blocker Split Nostril Olfactometer_Pilot 2	47	1	<?xml version="1.0"?>\n<Clock xmlns:dt="urn:schemas-microsoft-com:datatypes"><Description dt:dt="string">E-Prime Primary Realtime Clock</Description><StartTime><Timestamp dt:dt="int">0</Timestamp><DateUtc dt:dt="string">2016-07-19T18:26:39Z</DateUtc></StartTime><FrequencyChanges><FrequencyChange><Frequency dt:dt="r8">2793160000</Frequency><Timestamp dt:dt="r8">5.33298233245456E+15</Timestamp><Current dt:dt="r8">0</Current><DateUtc dt:dt="string">2016-07-19T18:26:39Z</DateUtc></FrequencyChange></FrequencyChanges></Clock>\n	TMA Blocker Split Nostril Olfactometer_Pilot 2-47-1	74.911	1.0.0.1473	1	0		-999999	12048	4484314	0	q	352731	4837045	-719387603	2.0.10.242	2.0.10.242	07-19-2016	7/19/2016 6:26:40 PM	14:26:40	2.0.10.147	18	GREEN	NULL	NULL	BlockProcA	NULL	Test1	NULL	NULL	NULL	NULL	NULL	NULL	1	1	1	NULL	NULL	NULL	No	NULL	NULL	NULL	NULL	NULL	NULL	2	NULL	NULL	NULL	NULL	Blank	66	9	NULL	NULL	NULL	NULL	TrialProc	NULL	NULL	NULL	NULL	NULL	NULL	NULL	NULL	NULL	NULL	NULL	NULL	NULL	NULL	NULL	NULL	TMA	TrialList	NULL	NULL	NULL	NULL	NULL	NULL	2	1	2	NULL	NULL	NULL	2	NULL	NULL	1	2	2	NULL	Green	544	485	NULL	NULL	NULL	NULL	NULL	NULL	NULL	NULL	NULL	1	NULL	NULL	NULL	ExperimentProc	How intense is the odor?	Experiment	NULL	NULL	NULL	NULL	NULL	NULL	NULL	NULL	?
TMA Blocker Split Nostril Olfactometer_Pilot 2	47	1	<?xml version="1.0"?>\n<Clock xmlns:dt="urn:schemas-microsoft-com:datatypes"><Description dt:dt="string">E-Prime Primary Realtime Clock</Description><StartTime><Timestamp dt:dt="int">0</Timestamp><DateUtc dt:dt="string">2016-07-19T18:26:39Z</DateUtc></StartTime><FrequencyChanges><FrequencyChange><Frequency dt:dt="r8">2793160000</Frequency><Timestamp dt:dt="r8">5.33298233245456E+15</Timestamp><Current dt:dt="r8">0</Current><DateUtc dt:dt="string">2016-07-19T18:26:39Z</DateUtc></FrequencyChange></FrequencyChanges></Clock>\n	TMA Blocker Split Nostril Olfactometer_Pilot 2-47-1	74.911	1.0.0.1473	1	0		-999999	12048	4484314	0	q	352731	4837045	-719387603	2.0.10.242	2.0.10.242	07-19-2016	7/19/2016 6:26:40 PM	14:26:40	2.0.10.147	18	GREEN	NULL	NULL	BlockProcA	NULL	Test1	NULL	NULL	NULL	NULL	NULL	NULL	1	1	1	NULL	NULL	NULL	No	NULL	NULL	NULL	NULL	NULL	NULL	2	NULL	NULL	NULL	NULL	Blank	66	9	NULL	NULL	NULL	NULL	TrialProc	NULL	NULL	NULL	NULL	NULL	NULL	NULL	NULL	NULL	NULL	NULL	NULL	NULL	NULL	NULL	NULL	TMA	TrialList	NULL	NULL	NULL	NULL	NULL	NULL	2	1	2	NULL	NULL	NULL	3	NULL	1	NULL	NULL	NULL	NULL	NULL	NULL	NULL	1	1	-999999	13	2339528	0	1	3029	2342557	NULL	NULL	NULL	NULL	SongTrial	NULL	SoundList	NULL	NULL	19	1	2	NULL	NULL	NULL	NULL
TMA Blocker Split Nostril Olfactometer_Pilot 2	47	1	<?xml version="1.0"?>\n<Clock xmlns:dt="urn:schemas-microsoft-com:datatypes"><Description dt:dt="string">E-Prime Primary Realtime Clock</Description><StartTime><Timestamp dt:dt="int">0</Timestamp><DateUtc dt:dt="string">2016-07-19T18:26:39Z</DateUtc></StartTime><FrequencyChanges><FrequencyChange><Frequency dt:dt="r8">2793160000</Frequency><Timestamp dt:dt="r8">5.33298233245456E+15</Timestamp><Current dt:dt="r8">0</Current><DateUtc dt:dt="string">2016-07-19T18:26:39Z</DateUtc></FrequencyChange></FrequencyChanges></Clock>\n	TMA Blocker Split Nostril Olfactometer_Pilot 2-47-1	74.911	1.0.0.1473	1	0		-999999	12048	4484314	0	q	352731	4837045	-719387603	2.0.10.242	2.0.10.242	07-19-2016	7/19/2016 6:26:40 PM	14:26:40	2.0.10.147	18	GREEN	NULL	NULL	BlockProcA	NULL	Test1	NULL	NULL	NULL	NULL	NULL	NULL	1	1	1	NULL	NULL	NULL	No	NULL	NULL	NULL	NULL	NULL	NULL	3	NULL	NULL	NULL	NULL	Blank	66	33	NULL	NULL	NULL	NULL	TrialProc	NULL	NULL	NULL	NULL	NULL	NULL	NULL	NULL	NULL	NULL	NULL	NULL	NULL	NULL	NULL	NULL	TMA+Nonenol	TrialList	NULL	NULL	NULL	NULL	NULL	NULL	6	1	3	NULL	NULL	NULL	1	NULL	NULL	NULL	NULL	NULL	NULL	NULL	NULL	NULL	NULL	NULL	NULL	NULL	NULL	NULL	NULL	NULL	NULL	NULL	1	10	10	PrepareProc	NULL	Prepare	NULL	NULL	NULL	NULL	NULL	NULL	NULL	NULL	NULL
TMA Blocker Split Nostril Olfactometer_Pilot 2	47	1	<?xml version="1.0"?>\n<Clock xmlns:dt="urn:schemas-microsoft-com:datatypes"><Description dt:dt="string">E-Prime Primary Realtime Clock</Description><StartTime><Timestamp dt:dt="int">0</Timestamp><DateUtc dt:dt="string">2016-07-19T18:26:39Z</DateUtc></StartTime><FrequencyChanges><FrequencyChange><Frequency dt:dt="r8">2793160000</Frequency><Timestamp dt:dt="r8">5.33298233245456E+15</Timestamp><Current dt:dt="r8">0</Current><DateUtc dt:dt="string">2016-07-19T18:26:39Z</DateUtc></FrequencyChange></FrequencyChanges></Clock>\n	TMA Blocker Split Nostril Olfactometer_Pilot 2-47-1	74.911	1.0.0.1473	1	0		-999999	12048	4484314	0	q	352731	4837045	-719387603	2.0.10.242	2.0.10.242	07-19-2016	7/19/2016 6:26:40 PM	14:26:40	2.0.10.147	18	GREEN	NULL	NULL	BlockProcA	NULL	Test1	NULL	NULL	NULL	NULL	NULL	NULL	1	1	1	NULL	NULL	NULL	No	NULL	NULL	NULL	NULL	NULL	NULL	3	NULL	NULL	NULL	NULL	Blank	66	33	NULL	NULL	NULL	NULL	TrialProc	NULL	NULL	NULL	NULL	NULL	NULL	NULL	NULL	NULL	NULL	NULL	NULL	NULL	NULL	NULL	NULL	TMA+Nonenol	TrialList	NULL	NULL	NULL	NULL	NULL	NULL	6	1	3	NULL	NULL	NULL	2	NULL	NULL	1	3	3	NULL	Green	417	528	NULL	NULL	NULL	NULL	NULL	NULL	NULL	NULL	NULL	1	NULL	NULL	NULL	ExperimentProc	How intense is the odor?	Experiment	NULL	NULL	NULL	NULL	NULL	NULL	NULL	NULL	?
TMA Blocker Split Nostril Olfactometer_Pilot 2	47	1	<?xml version="1.0"?>\n<Clock xmlns:dt="urn:schemas-microsoft-com:datatypes"><Description dt:dt="string">E-Prime Primary Realtime Clock</Description><StartTime><Timestamp dt:dt="int">0</Timestamp><DateUtc dt:dt="string">2016-07-19T18:26:39Z</DateUtc></StartTime><FrequencyChanges><FrequencyChange><Frequency dt:dt="r8">2793160000</Frequency><Timestamp dt:dt="r8">5.33298233245456E+15</Timestamp><Current dt:dt="r8">0</Current><DateUtc dt:dt="string">2016-07-19T18:26:39Z</DateUtc></FrequencyChange></FrequencyChanges></Clock>\n	TMA Blocker Split Nostril Olfactometer_Pilot 2-47-1	74.911	1.0.0.1473	1	0		-999999	12048	4484314	0	q	352731	4837045	-719387603	2.0.10.242	2.0.10.242	07-19-2016	7/19/2016 6:26:40 PM	14:26:40	2.0.10.147	18	GREEN	NULL	NULL	BlockProcA	NULL	Test1	NULL	NULL	NULL	NULL	NULL	NULL	1	1	1	NULL	NULL	NULL	No	NULL	NULL	NULL	NULL	NULL	NULL	3	NULL	NULL	NULL	NULL	Blank	66	33	NULL	NULL	NULL	NULL	TrialProc	NULL	NULL	NULL	NULL	NULL	NULL	NULL	NULL	NULL	NULL	NULL	NULL	NULL	NULL	NULL	NULL	TMA+Nonenol	TrialList	NULL	NULL	NULL	NULL	NULL	NULL	6	1	3	NULL	NULL	NULL	3	NULL	1	NULL	NULL	NULL	NULL	NULL	NULL	NULL	1	1	-999999	13	2385862	0	1	1733	2387595	NULL	NULL	NULL	NULL	SongTrial	NULL	SoundList	NULL	NULL	5	1	3	NULL	NULL	NULL	NULL
TMA Blocker Split Nostril Olfactometer_Pilot 2	47	1	<?xml version="1.0"?>\n<Clock xmlns:dt="urn:schemas-microsoft-com:datatypes"><Description dt:dt="string">E-Prime Primary Realtime Clock</Description><StartTime><Timestamp dt:dt="int">0</Timestamp><DateUtc dt:dt="string">2016-07-19T18:26:39Z</DateUtc></StartTime><FrequencyChanges><FrequencyChange><Frequency dt:dt="r8">2793160000</Frequency><Timestamp dt:dt="r8">5.33298233245456E+15</Timestamp><Current dt:dt="r8">0</Current><DateUtc dt:dt="string">2016-07-19T18:26:39Z</DateUtc></FrequencyChange></FrequencyChanges></Clock>\n	TMA Blocker Split Nostril Olfactometer_Pilot 2-47-1	74.911	1.0.0.1473	1	0		-999999	12048	4484314	0	q	352731	4837045	-719387603	2.0.10.242	2.0.10.242	07-19-2016	7/19/2016 6:26:40 PM	14:26:40	2.0.10.147	18	GREEN	NULL	NULL	BlockProcA	NULL	Test1	NULL	NULL	NULL	NULL	NULL	NULL	1	1	1	NULL	NULL	NULL	No	NULL	NULL	NULL	NULL	NULL	NULL	4	NULL	NULL	NULL	NULL	TMA	3	48	NULL	NULL	NULL	NULL	TrialProc	NULL	NULL	NULL	NULL	NULL	NULL	NULL	NULL	NULL	NULL	NULL	NULL	NULL	NULL	NULL	NULL	Nonenol	TrialList	NULL	NULL	NULL	NULL	NULL	NULL	7	1	4	NULL	NULL	NULL	1	NULL	NULL	NULL	NULL	NULL	NULL	NULL	NULL	NULL	NULL	NULL	NULL	NULL	NULL	NULL	NULL	NULL	NULL	NULL	1	11	11	PrepareProc	NULL	Prepare	NULL	NULL	NULL	NULL	NULL	NULL	NULL	NULL	NULL
TMA Blocker Split Nostril Olfactometer_Pilot 2	47	1	<?xml version="1.0"?>\n<Clock xmlns:dt="urn:schemas-microsoft-com:datatypes"><Description dt:dt="string">E-Prime Primary Realtime Clock</Description><StartTime><Timestamp dt:dt="int">0</Timestamp><DateUtc dt:dt="string">2016-07-19T18:26:39Z</DateUtc></StartTime><FrequencyChanges><FrequencyChange><Frequency dt:dt="r8">2793160000</Frequency><Timestamp dt:dt="r8">5.33298233245456E+15</Timestamp><Current dt:dt="r8">0</Current><DateUtc dt:dt="string">2016-07-19T18:26:39Z</DateUtc></FrequencyChange></FrequencyChanges></Clock>\n	TMA Blocker Split Nostril Olfactometer_Pilot 2-47-1	74.911	1.0.0.1473	1	0		-999999	12048	4484314	0	q	352731	4837045	-719387603	2.0.10.242	2.0.10.242	07-19-2016	7/19/2016 6:26:40 PM	14:26:40	2.0.10.147	18	GREEN	NULL	NULL	BlockProcA	NULL	Test1	NULL	NULL	NULL	NULL	NULL	NULL	1	1	1	NULL	NULL	NULL	No	NULL	NULL	NULL	NULL	NULL	NULL	4	NULL	NULL	NULL	NULL	TMA	3	48	NULL	NULL	NULL	NULL	TrialProc	NULL	NULL	NULL	NULL	NULL	NULL	NULL	NULL	NULL	NULL	NULL	NULL	NULL	NULL	NULL	NULL	Nonenol	TrialList	NULL	NULL	NULL	NULL	NULL	NULL	7	1	4	NULL	NULL	NULL	2	NULL	NULL	1	4	4	NULL	Green	435	506	NULL	NULL	NULL	NULL	NULL	NULL	NULL	NULL	NULL	1	NULL	NULL	NULL	ExperimentProc	How intense is the odor?	Experiment	NULL	NULL	NULL	NULL	NULL	NULL	NULL	NULL	?
TMA Blocker Split Nostril Olfactometer_Pilot 2	47	1	<?xml version="1.0"?>\n<Clock xmlns:dt="urn:schemas-microsoft-com:datatypes"><Description dt:dt="string">E-Prime Primary Realtime Clock</Description><StartTime><Timestamp dt:dt="int">0</Timestamp><DateUtc dt:dt="string">2016-07-19T18:26:39Z</DateUtc></StartTime><FrequencyChanges><FrequencyChange><Frequency dt:dt="r8">2793160000</Frequency><Timestamp dt:dt="r8">5.33298233245456E+15</Timestamp><Current dt:dt="r8">0</Current><DateUtc dt:dt="string">2016-07-19T18:26:39Z</DateUtc></FrequencyChange></FrequencyChanges></Clock>\n	TMA Blocker Split Nostril Olfactometer_Pilot 2-47-1	74.911	1.0.0.1473	1	0		-999999	12048	4484314	0	q	352731	4837045	-719387603	2.0.10.242	2.0.10.242	07-19-2016	7/19/2016 6:26:40 PM	14:26:40	2.0.10.147	18	GREEN	NULL	NULL	BlockProcA	NULL	Test1	NULL	NULL	NULL	NULL	NULL	NULL	1	1	1	NULL	NULL	NULL	No	NULL	NULL	NULL	NULL	NULL	NULL	4	NULL	NULL	NULL	NULL	TMA	3	48	NULL	NULL	NULL	NULL	TrialProc	NULL	NULL	NULL	NULL	NULL	NULL	NULL	NULL	NULL	NULL	NULL	NULL	NULL	NULL	NULL	NULL	Nonenol	TrialList	NULL	NULL	NULL	NULL	NULL	NULL	7	1	4	NULL	NULL	NULL	3	NULL	1	NULL	NULL	NULL	NULL	NULL	NULL	NULL	1	1	-999999	13	2430956	0	1	1318	2432274	NULL	NULL	NULL	NULL	SongTrial	NULL	SoundList	NULL	NULL	20	1	4	NULL	NULL	NULL	NULL
TMA Blocker Split Nostril Olfactometer_Pilot 2	47	1	<?xml version="1.0"?>\n<Clock xmlns:dt="urn:schemas-microsoft-com:datatypes"><Description dt:dt="string">E-Prime Primary Realtime Clock</Description><StartTime><Timestamp dt:dt="int">0</Timestamp><DateUtc dt:dt="string">2016-07-19T18:26:39Z</DateUtc></StartTime><FrequencyChanges><FrequencyChange><Frequency dt:dt="r8">2793160000</Frequency><Timestamp dt:dt="r8">5.33298233245456E+15</Timestamp><Current dt:dt="r8">0</Current><DateUtc dt:dt="string">2016-07-19T18:26:39Z</DateUtc></FrequencyChange></FrequencyChanges></Clock>\n	TMA Blocker Split Nostril Olfactometer_Pilot 2-47-1	74.911	1.0.0.1473	1	0		-999999	12048	4484314	0	q	352731	4837045	-719387603	2.0.10.242	2.0.10.242	07-19-2016	7/19/2016 6:26:40 PM	14:26:40	2.0.10.147	18	GREEN	NULL	NULL	BlockProcA	NULL	Test1	NULL	NULL	NULL	NULL	NULL	NULL	1	1	1	NULL	NULL	NULL	No	NULL	NULL	NULL	NULL	NULL	NULL	5	NULL	NULL	NULL	NULL	Nonenol	72	9	NULL	NULL	NULL	NULL	TrialProc	NULL	NULL	NULL	NULL	NULL	NULL	NULL	NULL	NULL	NULL	NULL	NULL	NULL	NULL	NULL	NULL	TMA	TrialList	NULL	NULL	NULL	NULL	NULL	NULL	8	1	5	NULL	NULL	NULL	1	NULL	NULL	NULL	NULL	NULL	NULL	NULL	NULL	NULL	NULL	NULL	NULL	NULL	NULL	NULL	NULL	NULL	NULL	NULL	1	12	12	PrepareProc	NULL	Prepare	NULL	NULL	NULL	NULL	NULL	NULL	NULL	NULL	NULL
TMA Blocker Split Nostril Olfactometer_Pilot 2	47	1	<?xml version="1.0"?>\n<Clock xmlns:dt="urn:schemas-microsoft-com:datatypes"><Description dt:dt="string">E-Prime Primary Realtime Clock</Description><StartTime><Timestamp dt:dt="int">0</Timestamp><DateUtc dt:dt="string">2016-07-19T18:26:39Z</DateUtc></StartTime><FrequencyChanges><FrequencyChange><Frequency dt:dt="r8">2793160000</Frequency><Timestamp dt:dt="r8">5.33298233245456E+15</Timestamp><Current dt:dt="r8">0</Current><DateUtc dt:dt="string">2016-07-19T18:26:39Z</DateUtc></FrequencyChange></FrequencyChanges></Clock>\n	TMA Blocker Split Nostril Olfactometer_Pilot 2-47-1	74.911	1.0.0.1473	1	0		-999999	12048	4484314	0	q	352731	4837045	-719387603	2.0.10.242	2.0.10.242	07-19-2016	7/19/2016 6:26:40 PM	14:26:40	2.0.10.147	18	GREEN	NULL	NULL	BlockProcA	NULL	Test1	NULL	NULL	NULL	NULL	NULL	NULL	1	1	1	NULL	NULL	NULL	No	NULL	NULL	NULL	NULL	NULL	NULL	5	NULL	NULL	NULL	NULL	Nonenol	72	9	NULL	NULL	NULL	NULL	TrialProc	NULL	NULL	NULL	NULL	NULL	NULL	NULL	NULL	NULL	NULL	NULL	NULL	NULL	NULL	NULL	NULL	TMA	TrialList	NULL	NULL	NULL	NULL	NULL	NULL	8	1	5	NULL	NULL	NULL	2	NULL	NULL	1	5	5	NULL	Green	452	521	NULL	NULL	NULL	NULL	NULL	NULL	NULL	NULL	NULL	1	NULL	NULL	NULL	ExperimentProc	How intense is the odor?	Experiment	NULL	NULL	NULL	NULL	NULL	NULL	NULL	NULL	?
TMA Blocker Split Nostril Olfactometer_Pilot 2	47	1	<?xml version="1.0"?>\n<Clock xmlns:dt="urn:schemas-microsoft-com:datatypes"><Description dt:dt="string">E-Prime Primary Realtime Clock</Description><StartTime><Timestamp dt:dt="int">0</Timestamp><DateUtc dt:dt="string">2016-07-19T18:26:39Z</DateUtc></StartTime><FrequencyChanges><FrequencyChange><Frequency dt:dt="r8">2793160000</Frequency><Timestamp dt:dt="r8">5.33298233245456E+15</Timestamp><Current dt:dt="r8">0</Current><DateUtc dt:dt="string">2016-07-19T18:26:39Z</DateUtc></FrequencyChange></FrequencyChanges></Clock>\n	TMA Blocker Split Nostril Olfactometer_Pilot 2-47-1	74.911	1.0.0.1473	1	0		-999999	12048	4484314	0	q	352731	4837045	-719387603	2.0.10.242	2.0.10.242	07-19-2016	7/19/2016 6:26:40 PM	14:26:40	2.0.10.147	18	GREEN	NULL	NULL	BlockProcA	NULL	Test1	NULL	NULL	NULL	NULL	NULL	NULL	1	1	1	NULL	NULL	NULL	No	NULL	NULL	NULL	NULL	NULL	NULL	5	NULL	NULL	NULL	NULL	Nonenol	72	9	NULL	NULL	NULL	NULL	TrialProc	NULL	NULL	NULL	NULL	NULL	NULL	NULL	NULL	NULL	NULL	NULL	NULL	NULL	NULL	NULL	NULL	TMA	TrialList	NULL	NULL	NULL	NULL	NULL	NULL	8	1	5	NULL	NULL	NULL	3	NULL	1	NULL	NULL	NULL	NULL	NULL	NULL	NULL	0	1	-999999	13	2473633	0	2	759	2474392	NULL	NULL	NULL	NULL	SongTrial	NULL	SoundList	NULL	NULL	10	1	5	NULL	NULL	NULL	NULL
TMA Blocker Split Nostril Olfactometer_Pilot 2	47	1	<?xml version="1.0"?>\n<Clock xmlns:dt="urn:schemas-microsoft-com:datatypes"><Description dt:dt="string">E-Prime Primary Realtime Clock</Description><StartTime><Timestamp dt:dt="int">0</Timestamp><DateUtc dt:dt="string">2016-07-19T18:26:39Z</DateUtc></StartTime><FrequencyChanges><FrequencyChange><Frequency dt:dt="r8">2793160000</Frequency><Timestamp dt:dt="r8">5.33298233245456E+15</Timestamp><Current dt:dt="r8">0</Current><DateUtc dt:dt="string">2016-07-19T18:26:39Z</DateUtc></FrequencyChange></FrequencyChanges></Clock>\n	TMA Blocker Split Nostril Olfactometer_Pilot 2-47-1	74.911	1.0.0.1473	1	0		-999999	12048	4484314	0	q	352731	4837045	-719387603	2.0.10.242	2.0.10.242	07-19-2016	7/19/2016 6:26:40 PM	14:26:40	2.0.10.147	18	GREEN	NULL	NULL	BlockProcA	NULL	Test1	NULL	NULL	NULL	NULL	NULL	NULL	1	1	1	NULL	NULL	NULL	No	NULL	NULL	NULL	NULL	NULL	NULL	6	NULL	NULL	NULL	NULL	Nonenol	72	24	NULL	NULL	NULL	NULL	TrialProc	NULL	NULL	NULL	NULL	NULL	NULL	NULL	NULL	NULL	NULL	NULL	NULL	NULL	NULL	NULL	NULL	Blank	TrialList	NULL	NULL	NULL	NULL	NULL	NULL	3	1	6	NULL	NULL	NULL	1	NULL	NULL	NULL	NULL	NULL	NULL	NULL	NULL	NULL	NULL	NULL	NULL	NULL	NULL	NULL	NULL	NULL	NULL	NULL	1	13	13	PrepareProc	NULL	Prepare	NULL	NULL	NULL	NULL	NULL	NULL	NULL	NULL	NULL
TMA Blocker Split Nostril Olfactometer_Pilot 2	47	1	<?xml version="1.0"?>\n<Clock xmlns:dt="urn:schemas-microsoft-com:datatypes"><Description dt:dt="string">E-Prime Primary Realtime Clock</Description><StartTime><Timestamp dt:dt="int">0</Timestamp><DateUtc dt:dt="string">2016-07-19T18:26:39Z</DateUtc></StartTime><FrequencyChanges><FrequencyChange><Frequency dt:dt="r8">2793160000</Frequency><Timestamp dt:dt="r8">5.33298233245456E+15</Timestamp><Current dt:dt="r8">0</Current><DateUtc dt:dt="string">2016-07-19T18:26:39Z</DateUtc></FrequencyChange></FrequencyChanges></Clock>\n	TMA Blocker Split Nostril Olfactometer_Pilot 2-47-1	74.911	1.0.0.1473	1	0		-999999	12048	4484314	0	q	352731	4837045	-719387603	2.0.10.242	2.0.10.242	07-19-2016	7/19/2016 6:26:40 PM	14:26:40	2.0.10.147	18	GREEN	NULL	NULL	BlockProcA	NULL	Test1	NULL	NULL	NULL	NULL	NULL	NULL	1	1	1	NULL	NULL	NULL	No	NULL	NULL	NULL	NULL	NULL	NULL	6	NULL	NULL	NULL	NULL	Nonenol	72	24	NULL	NULL	NULL	NULL	TrialProc	NULL	NULL	NULL	NULL	NULL	NULL	NULL	NULL	NULL	NULL	NULL	NULL	NULL	NULL	NULL	NULL	Blank	TrialList	NULL	NULL	NULL	NULL	NULL	NULL	3	1	6	NULL	NULL	NULL	2	NULL	NULL	1	6	6	NULL	Green	559	559	NULL	NULL	NULL	NULL	NULL	NULL	NULL	NULL	NULL	1	NULL	NULL	NULL	ExperimentProc	How intense is the odor?	Experiment	NULL	NULL	NULL	NULL	NULL	NULL	NULL	NULL	?
TMA Blocker Split Nostril Olfactometer_Pilot 2	47	1	<?xml version="1.0"?>\n<Clock xmlns:dt="urn:schemas-microsoft-com:datatypes"><Description dt:dt="string">E-Prime Primary Realtime Clock</Description><StartTime><Timestamp dt:dt="int">0</Timestamp><DateUtc dt:dt="string">2016-07-19T18:26:39Z</DateUtc></StartTime><FrequencyChanges><FrequencyChange><Frequency dt:dt="r8">2793160000</Frequency><Timestamp dt:dt="r8">5.33298233245456E+15</Timestamp><Current dt:dt="r8">0</Current><DateUtc dt:dt="string">2016-07-19T18:26:39Z</DateUtc></FrequencyChange></FrequencyChanges></Clock>\n	TMA Blocker Split Nostril Olfactometer_Pilot 2-47-1	74.911	1.0.0.1473	1	0		-999999	12048	4484314	0	q	352731	4837045	-719387603	2.0.10.242	2.0.10.242	07-19-2016	7/19/2016 6:26:40 PM	14:26:40	2.0.10.147	18	GREEN	NULL	NULL	BlockProcA	NULL	Test1	NULL	NULL	NULL	NULL	NULL	NULL	1	1	1	NULL	NULL	NULL	No	NULL	NULL	NULL	NULL	NULL	NULL	6	NULL	NULL	NULL	NULL	Nonenol	72	24	NULL	NULL	NULL	NULL	TrialProc	NULL	NULL	NULL	NULL	NULL	NULL	NULL	NULL	NULL	NULL	NULL	NULL	NULL	NULL	NULL	NULL	Blank	TrialList	NULL	NULL	NULL	NULL	NULL	NULL	3	1	6	NULL	NULL	NULL	3	NULL	1	NULL	NULL	NULL	NULL	NULL	NULL	NULL	1	1	-999999	13	2516710	0	1	1151	2517861	NULL	NULL	NULL	NULL	SongTrial	NULL	SoundList	NULL	NULL	7	1	6	NULL	NULL	NULL	NULL
TMA Blocker Split Nostril Olfactometer_Pilot 2	47	1	<?xml version="1.0"?>\n<Clock xmlns:dt="urn:schemas-microsoft-com:datatypes"><Description dt:dt="string">E-Prime Primary Realtime Clock</Description><StartTime><Timestamp dt:dt="int">0</Timestamp><DateUtc dt:dt="string">2016-07-19T18:26:39Z</DateUtc></StartTime><FrequencyChanges><FrequencyChange><Frequency dt:dt="r8">2793160000</Frequency><Timestamp dt:dt="r8">5.33298233245456E+15</Timestamp><Current dt:dt="r8">0</Current><DateUtc dt:dt="string">2016-07-19T18:26:39Z</DateUtc></FrequencyChange></FrequencyChanges></Clock>\n	TMA Blocker Split Nostril Olfactometer_Pilot 2-47-1	74.911	1.0.0.1473	1	0		-999999	12048	4484314	0	q	352731	4837045	-719387603	2.0.10.242	2.0.10.242	07-19-2016	7/19/2016 6:26:40 PM	14:26:40	2.0.10.147	18	GREEN	NULL	NULL	BlockProcA	NULL	Test1	NULL	NULL	NULL	NULL	NULL	NULL	1	1	1	NULL	NULL	NULL	No	NULL	NULL	NULL	NULL	NULL	NULL	7	NULL	NULL	NULL	NULL	Blank	66	48	NULL	NULL	NULL	NULL	TrialProc	NULL	NULL	NULL	NULL	NULL	NULL	NULL	NULL	NULL	NULL	NULL	NULL	NULL	NULL	NULL	NULL	Nonenol	TrialList	NULL	NULL	NULL	NULL	NULL	NULL	4	1	7	NULL	NULL	NULL	1	NULL	NULL	NULL	NULL	NULL	NULL	NULL	NULL	NULL	NULL	NULL	NULL	NULL	NULL	NULL	NULL	NULL	NULL	NULL	1	14	14	PrepareProc	NULL	Prepare	NULL	NULL	NULL	NULL	NULL	NULL	NULL	NULL	NULL
TMA Blocker Split Nostril Olfactometer_Pilot 2	47	1	<?xml version="1.0"?>\n<Clock xmlns:dt="urn:schemas-microsoft-com:datatypes"><Description dt:dt="string">E-Prime Primary Realtime Clock</Description><StartTime><Timestamp dt:dt="int">0</Timestamp><DateUtc dt:dt="string">2016-07-19T18:26:39Z</DateUtc></StartTime><FrequencyChanges><FrequencyChange><Frequency dt:dt="r8">2793160000</Frequency><Timestamp dt:dt="r8">5.33298233245456E+15</Timestamp><Current dt:dt="r8">0</Current><DateUtc dt:dt="string">2016-07-19T18:26:39Z</DateUtc></FrequencyChange></FrequencyChanges></Clock>\n	TMA Blocker Split Nostril Olfactometer_Pilot 2-47-1	74.911	1.0.0.1473	1	0		-999999	12048	4484314	0	q	352731	4837045	-719387603	2.0.10.242	2.0.10.242	07-19-2016	7/19/2016 6:26:40 PM	14:26:40	2.0.10.147	18	GREEN	NULL	NULL	BlockProcA	NULL	Test1	NULL	NULL	NULL	NULL	NULL	NULL	1	1	1	NULL	NULL	NULL	No	NULL	NULL	NULL	NULL	NULL	NULL	7	NULL	NULL	NULL	NULL	Blank	66	48	NULL	NULL	NULL	NULL	TrialProc	NULL	NULL	NULL	NULL	NULL	NULL	NULL	NULL	NULL	NULL	NULL	NULL	NULL	NULL	NULL	NULL	Nonenol	TrialList	NULL	NULL	NULL	NULL	NULL	NULL	4	1	7	NULL	NULL	NULL	2	NULL	NULL	1	7	7	NULL	Green	530	505	NULL	NULL	NULL	NULL	NULL	NULL	NULL	NULL	NULL	1	NULL	NULL	NULL	ExperimentProc	How intense is the odor?	Experiment	NULL	NULL	NULL	NULL	NULL	NULL	NULL	NULL	?
TMA Blocker Split Nostril Olfactometer_Pilot 2	47	1	<?xml version="1.0"?>\n<Clock xmlns:dt="urn:schemas-microsoft-com:datatypes"><Description dt:dt="string">E-Prime Primary Realtime Clock</Description><StartTime><Timestamp dt:dt="int">0</Timestamp><DateUtc dt:dt="string">2016-07-19T18:26:39Z</DateUtc></StartTime><FrequencyChanges><FrequencyChange><Frequency dt:dt="r8">2793160000</Frequency><Timestamp dt:dt="r8">5.33298233245456E+15</Timestamp><Current dt:dt="r8">0</Current><DateUtc dt:dt="string">2016-07-19T18:26:39Z</DateUtc></FrequencyChange></FrequencyChanges></Clock>\n	TMA Blocker Split Nostril Olfactometer_Pilot 2-47-1	74.911	1.0.0.1473	1	0		-999999	12048	4484314	0	q	352731	4837045	-719387603	2.0.10.242	2.0.10.242	07-19-2016	7/19/2016 6:26:40 PM	14:26:40	2.0.10.147	18	GREEN	NULL	NULL	BlockProcA	NULL	Test1	NULL	NULL	NULL	NULL	NULL	NULL	1	1	1	NULL	NULL	NULL	No	NULL	NULL	NULL	NULL	NULL	NULL	7	NULL	NULL	NULL	NULL	Blank	66	48	NULL	NULL	NULL	NULL	TrialProc	NULL	NULL	NULL	NULL	NULL	NULL	NULL	NULL	NULL	NULL	NULL	NULL	NULL	NULL	NULL	NULL	Nonenol	TrialList	NULL	NULL	NULL	NULL	NULL	NULL	4	1	7	NULL	NULL	NULL	3	NULL	2	NULL	NULL	NULL	NULL	NULL	NULL	NULL	1	2	-999999	13	2559187	0	2	795	2559982	NULL	NULL	NULL	NULL	SongTrial	NULL	SoundList	NULL	NULL	17	1	7	NULL	NULL	NULL	NULL
TMA Blocker Split Nostril Olfactometer_Pilot 2	47	1	<?xml version="1.0"?>\n<Clock xmlns:dt="urn:schemas-microsoft-com:datatypes"><Description dt:dt="string">E-Prime Primary Realtime Clock</Description><StartTime><Timestamp dt:dt="int">0</Timestamp><DateUtc dt:dt="string">2016-07-19T18:26:39Z</DateUtc></StartTime><FrequencyChanges><FrequencyChange><Frequency dt:dt="r8">2793160000</Frequency><Timestamp dt:dt="r8">5.33298233245456E+15</Timestamp><Current dt:dt="r8">0</Current><DateUtc dt:dt="string">2016-07-19T18:26:39Z</DateUtc></FrequencyChange></FrequencyChanges></Clock>\n	TMA Blocker Split Nostril Olfactometer_Pilot 2-47-1	74.911	1.0.0.1473	1	0		-999999	12048	4484314	0	q	352731	4837045	-719387603	2.0.10.242	2.0.10.242	07-19-2016	7/19/2016 6:26:40 PM	14:26:40	2.0.10.147	18	GREEN	NULL	NULL	BlockProcA	NULL	Test1	NULL	NULL	NULL	NULL	NULL	NULL	1	1	1	NULL	NULL	NULL	No	NULL	NULL	NULL	NULL	NULL	NULL	8	NULL	NULL	NULL	NULL	Blank	66	24	NULL	NULL	NULL	NULL	TrialProc	NULL	NULL	NULL	NULL	NULL	NULL	NULL	NULL	NULL	NULL	NULL	NULL	NULL	NULL	NULL	NULL	Blank	TrialList	NULL	NULL	NULL	NULL	NULL	NULL	9	1	8	NULL	NULL	NULL	1	NULL	NULL	NULL	NULL	NULL	NULL	NULL	NULL	NULL	NULL	NULL	NULL	NULL	NULL	NULL	NULL	NULL	NULL	NULL	1	15	15	PrepareProc	NULL	Prepare	NULL	NULL	NULL	NULL	NULL	NULL	NULL	NULL	NULL
TMA Blocker Split Nostril Olfactometer_Pilot 2	47	1	<?xml version="1.0"?>\n<Clock xmlns:dt="urn:schemas-microsoft-com:datatypes"><Description dt:dt="string">E-Prime Primary Realtime Clock</Description><StartTime><Timestamp dt:dt="int">0</Timestamp><DateUtc dt:dt="string">2016-07-19T18:26:39Z</DateUtc></StartTime><FrequencyChanges><FrequencyChange><Frequency dt:dt="r8">2793160000</Frequency><Timestamp dt:dt="r8">5.33298233245456E+15</Timestamp><Current dt:dt="r8">0</Current><DateUtc dt:dt="string">2016-07-19T18:26:39Z</DateUtc></FrequencyChange></FrequencyChanges></Clock>\n	TMA Blocker Split Nostril Olfactometer_Pilot 2-47-1	74.911	1.0.0.1473	1	0		-999999	12048	4484314	0	q	352731	4837045	-719387603	2.0.10.242	2.0.10.242	07-19-2016	7/19/2016 6:26:40 PM	14:26:40	2.0.10.147	18	GREEN	NULL	NULL	BlockProcA	NULL	Test1	NULL	NULL	NULL	NULL	NULL	NULL	1	1	1	NULL	NULL	NULL	No	NULL	NULL	NULL	NULL	NULL	NULL	8	NULL	NULL	NULL	NULL	Blank	66	24	NULL	NULL	NULL	NULL	TrialProc	NULL	NULL	NULL	NULL	NULL	NULL	NULL	NULL	NULL	NULL	NULL	NULL	NULL	NULL	NULL	NULL	Blank	TrialList	NULL	NULL	NULL	NULL	NULL	NULL	9	1	8	NULL	NULL	NULL	2	NULL	NULL	1	8	8	NULL	Green	501	473	NULL	NULL	NULL	NULL	NULL	NULL	NULL	NULL	NULL	1	NULL	NULL	NULL	ExperimentProc	How intense is the odor?	Experiment	NULL	NULL	NULL	NULL	NULL	NULL	NULL	NULL	?
TMA Blocker Split Nostril Olfactometer_Pilot 2	47	1	<?xml version="1.0"?>\n<Clock xmlns:dt="urn:schemas-microsoft-com:datatypes"><Description dt:dt="string">E-Prime Primary Realtime Clock</Description><StartTime><Timestamp dt:dt="int">0</Timestamp><DateUtc dt:dt="string">2016-07-19T18:26:39Z</DateUtc></StartTime><FrequencyChanges><FrequencyChange><Frequency dt:dt="r8">2793160000</Frequency><Timestamp dt:dt="r8">5.33298233245456E+15</Timestamp><Current dt:dt="r8">0</Current><DateUtc dt:dt="string">2016-07-19T18:26:39Z</DateUtc></FrequencyChange></FrequencyChanges></Clock>\n	TMA Blocker Split Nostril Olfactometer_Pilot 2-47-1	74.911	1.0.0.1473	1	0		-999999	12048	4484314	0	q	352731	4837045	-719387603	2.0.10.242	2.0.10.242	07-19-2016	7/19/2016 6:26:40 PM	14:26:40	2.0.10.147	18	GREEN	NULL	NULL	BlockProcA	NULL	Test1	NULL	NULL	NULL	NULL	NULL	NULL	1	1	1	NULL	NULL	NULL	No	NULL	NULL	NULL	NULL	NULL	NULL	8	NULL	NULL	NULL	NULL	Blank	66	24	NULL	NULL	NULL	NULL	TrialProc	NULL	NULL	NULL	NULL	NULL	NULL	NULL	NULL	NULL	NULL	NULL	NULL	NULL	NULL	NULL	NULL	Blank	TrialList	NULL	NULL	NULL	NULL	NULL	NULL	9	1	8	NULL	NULL	NULL	3	NULL	2	NULL	NULL	NULL	NULL	NULL	NULL	NULL	1	2	-999999	13	2603466	0	2	1002	2604468	NULL	NULL	NULL	NULL	SongTrial	NULL	SoundList	NULL	NULL	11	1	8	NULL	NULL	NULL	NULL
TMA Blocker Split Nostril Olfactometer_Pilot 2	47	1	<?xml version="1.0"?>\n<Clock xmlns:dt="urn:schemas-microsoft-com:datatypes"><Description dt:dt="string">E-Prime Primary Realtime Clock</Description><StartTime><Timestamp dt:dt="int">0</Timestamp><DateUtc dt:dt="string">2016-07-19T18:26:39Z</DateUtc></StartTime><FrequencyChanges><FrequencyChange><Frequency dt:dt="r8">2793160000</Frequency><Timestamp dt:dt="r8">5.33298233245456E+15</Timestamp><Current dt:dt="r8">0</Current><DateUtc dt:dt="string">2016-07-19T18:26:39Z</DateUtc></FrequencyChange></FrequencyChanges></Clock>\n	TMA Blocker Split Nostril Olfactometer_Pilot 2-47-1	74.911	1.0.0.1473	1	0		-999999	12048	4484314	0	q	352731	4837045	-719387603	2.0.10.242	2.0.10.242	07-19-2016	7/19/2016 6:26:40 PM	14:26:40	2.0.10.147	18	GREEN	NULL	NULL	BlockProcA	NULL	Test1	NULL	NULL	NULL	NULL	NULL	NULL	1	1	1	NULL	NULL	NULL	No	NULL	NULL	NULL	NULL	NULL	NULL	9	NULL	NULL	NULL	NULL	TMA+Nonenol	9	24	NULL	NULL	NULL	NULL	TrialProc	NULL	NULL	NULL	NULL	NULL	NULL	NULL	NULL	NULL	NULL	NULL	NULL	NULL	NULL	NULL	NULL	Blank	TrialList	NULL	NULL	NULL	NULL	NULL	NULL	5	1	9	NULL	NULL	NULL	1	NULL	NULL	NULL	NULL	NULL	NULL	NULL	NULL	NULL	NULL	NULL	NULL	NULL	NULL	NULL	NULL	NULL	NULL	NULL	1	16	16	PrepareProc	NULL	Prepare	NULL	NULL	NULL	NULL	NULL	NULL	NULL	NULL	NULL
TMA Blocker Split Nostril Olfactometer_Pilot 2	47	1	<?xml version="1.0"?>\n<Clock xmlns:dt="urn:schemas-microsoft-com:datatypes"><Description dt:dt="string">E-Prime Primary Realtime Clock</Description><StartTime><Timestamp dt:dt="int">0</Timestamp><DateUtc dt:dt="string">2016-07-19T18:26:39Z</DateUtc></StartTime><FrequencyChanges><FrequencyChange><Frequency dt:dt="r8">2793160000</Frequency><Timestamp dt:dt="r8">5.33298233245456E+15</Timestamp><Current dt:dt="r8">0</Current><DateUtc dt:dt="string">2016-07-19T18:26:39Z</DateUtc></FrequencyChange></FrequencyChanges></Clock>\n	TMA Blocker Split Nostril Olfactometer_Pilot 2-47-1	74.911	1.0.0.1473	1	0		-999999	12048	4484314	0	q	352731	4837045	-719387603	2.0.10.242	2.0.10.242	07-19-2016	7/19/2016 6:26:40 PM	14:26:40	2.0.10.147	18	GREEN	NULL	NULL	BlockProcA	NULL	Test1	NULL	NULL	NULL	NULL	NULL	NULL	1	1	1	NULL	NULL	NULL	No	NULL	NULL	NULL	NULL	NULL	NULL	9	NULL	NULL	NULL	NULL	TMA+Nonenol	9	24	NULL	NULL	NULL	NULL	TrialProc	NULL	NULL	NULL	NULL	NULL	NULL	NULL	NULL	NULL	NULL	NULL	NULL	NULL	NULL	NULL	NULL	Blank	TrialList	NULL	NULL	NULL	NULL	NULL	NULL	5	1	9	NULL	NULL	NULL	2	NULL	NULL	1	9	9	NULL	Green	496	430	NULL	NULL	NULL	NULL	NULL	NULL	NULL	NULL	NULL	1	NULL	NULL	NULL	ExperimentProc	How intense is the odor?	Experiment	NULL	NULL	NULL	NULL	NULL	NULL	NULL	NULL	?
TMA Blocker Split Nostril Olfactometer_Pilot 2	47	1	<?xml version="1.0"?>\n<Clock xmlns:dt="urn:schemas-microsoft-com:datatypes"><Description dt:dt="string">E-Prime Primary Realtime Clock</Description><StartTime><Timestamp dt:dt="int">0</Timestamp><DateUtc dt:dt="string">2016-07-19T18:26:39Z</DateUtc></StartTime><FrequencyChanges><FrequencyChange><Frequency dt:dt="r8">2793160000</Frequency><Timestamp dt:dt="r8">5.33298233245456E+15</Timestamp><Current dt:dt="r8">0</Current><DateUtc dt:dt="string">2016-07-19T18:26:39Z</DateUtc></FrequencyChange></FrequencyChanges></Clock>\n	TMA Blocker Split Nostril Olfactometer_Pilot 2-47-1	74.911	1.0.0.1473	1	0		-999999	12048	4484314	0	q	352731	4837045	-719387603	2.0.10.242	2.0.10.242	07-19-2016	7/19/2016 6:26:40 PM	14:26:40	2.0.10.147	18	GREEN	NULL	NULL	BlockProcA	NULL	Test1	NULL	NULL	NULL	NULL	NULL	NULL	1	1	1	NULL	NULL	NULL	No	NULL	NULL	NULL	NULL	NULL	NULL	9	NULL	NULL	NULL	NULL	TMA+Nonenol	9	24	NULL	NULL	NULL	NULL	TrialProc	NULL	NULL	NULL	NULL	NULL	NULL	NULL	NULL	NULL	NULL	NULL	NULL	NULL	NULL	NULL	NULL	Blank	TrialList	NULL	NULL	NULL	NULL	NULL	NULL	5	1	9	NULL	NULL	NULL	3	NULL	1	NULL	NULL	NULL	NULL	NULL	NULL	NULL	1	1	-999999	27	2647305	0	1	1538	2648843	NULL	NULL	NULL	NULL	SongTrial	NULL	SoundList	NULL	NULL	4	1	9	NULL	NULL	NULL	NULL
TMA Blocker Split Nostril Olfactometer_Pilot 2	47	1	<?xml version="1.0"?>\n<Clock xmlns:dt="urn:schemas-microsoft-com:datatypes"><Description dt:dt="string">E-Prime Primary Realtime Clock</Description><StartTime><Timestamp dt:dt="int">0</Timestamp><DateUtc dt:dt="string">2016-07-19T18:26:39Z</DateUtc></StartTime><FrequencyChanges><FrequencyChange><Frequency dt:dt="r8">2793160000</Frequency><Timestamp dt:dt="r8">5.33298233245456E+15</Timestamp><Current dt:dt="r8">0</Current><DateUtc dt:dt="string">2016-07-19T18:26:39Z</DateUtc></FrequencyChange></FrequencyChanges></Clock>\n	TMA Blocker Split Nostril Olfactometer_Pilot 2-47-1	74.911	1.0.0.1473	1	0		-999999	12048	4484314	0	q	352731	4837045	-719387603	2.0.10.242	2.0.10.242	07-19-2016	7/19/2016 6:26:40 PM	14:26:40	2.0.10.147	18	GREEN	NULL	NULL	BlockProcA	NULL	Test1	NULL	NULL	NULL	NULL	NULL	NULL	1	1	1	NULL	NULL	NULL	No	NULL	NULL	NULL	NULL	NULL	NULL	10	NULL	NULL	NULL	NULL	Blank	66	48	NULL	NULL	NULL	NULL	TrialProc	NULL	NULL	NULL	NULL	NULL	NULL	NULL	NULL	NULL	NULL	NULL	NULL	NULL	NULL	NULL	NULL	Nonenol	TrialList	NULL	NULL	NULL	NULL	NULL	NULL	4	2	10	NULL	NULL	NULL	1	NULL	NULL	NULL	NULL	NULL	NULL	NULL	NULL	NULL	NULL	NULL	NULL	NULL	NULL	NULL	NULL	NULL	NULL	NULL	1	17	17	PrepareProc	NULL	Prepare	NULL	NULL	NULL	NULL	NULL	NULL	NULL	NULL	NULL
TMA Blocker Split Nostril Olfactometer_Pilot 2	47	1	<?xml version="1.0"?>\n<Clock xmlns:dt="urn:schemas-microsoft-com:datatypes"><Description dt:dt="string">E-Prime Primary Realtime Clock</Description><StartTime><Timestamp dt:dt="int">0</Timestamp><DateUtc dt:dt="string">2016-07-19T18:26:39Z</DateUtc></StartTime><FrequencyChanges><FrequencyChange><Frequency dt:dt="r8">2793160000</Frequency><Timestamp dt:dt="r8">5.33298233245456E+15</Timestamp><Current dt:dt="r8">0</Current><DateUtc dt:dt="string">2016-07-19T18:26:39Z</DateUtc></FrequencyChange></FrequencyChanges></Clock>\n	TMA Blocker Split Nostril Olfactometer_Pilot 2-47-1	74.911	1.0.0.1473	1	0		-999999	12048	4484314	0	q	352731	4837045	-719387603	2.0.10.242	2.0.10.242	07-19-2016	7/19/2016 6:26:40 PM	14:26:40	2.0.10.147	18	GREEN	NULL	NULL	BlockProcA	NULL	Test1	NULL	NULL	NULL	NULL	NULL	NULL	1	1	1	NULL	NULL	NULL	No	NULL	NULL	NULL	NULL	NULL	NULL	10	NULL	NULL	NULL	NULL	Blank	66	48	NULL	NULL	NULL	NULL	TrialProc	NULL	NULL	NULL	NULL	NULL	NULL	NULL	NULL	NULL	NULL	NULL	NULL	NULL	NULL	NULL	NULL	Nonenol	TrialList	NULL	NULL	NULL	NULL	NULL	NULL	4	2	10	NULL	NULL	NULL	2	NULL	NULL	1	10	10	NULL	Green	504	570	NULL	NULL	NULL	NULL	NULL	NULL	NULL	NULL	NULL	1	NULL	NULL	NULL	ExperimentProc	How intense is the odor?	Experiment	NULL	NULL	NULL	NULL	NULL	NULL	NULL	NULL	?
TMA Blocker Split Nostril Olfactometer_Pilot 2	47	1	<?xml version="1.0"?>\n<Clock xmlns:dt="urn:schemas-microsoft-com:datatypes"><Description dt:dt="string">E-Prime Primary Realtime Clock</Description><StartTime><Timestamp dt:dt="int">0</Timestamp><DateUtc dt:dt="string">2016-07-19T18:26:39Z</DateUtc></StartTime><FrequencyChanges><FrequencyChange><Frequency dt:dt="r8">2793160000</Frequency><Timestamp dt:dt="r8">5.33298233245456E+15</Timestamp><Current dt:dt="r8">0</Current><DateUtc dt:dt="string">2016-07-19T18:26:39Z</DateUtc></FrequencyChange></FrequencyChanges></Clock>\n	TMA Blocker Split Nostril Olfactometer_Pilot 2-47-1	74.911	1.0.0.1473	1	0		-999999	12048	4484314	0	q	352731	4837045	-719387603	2.0.10.242	2.0.10.242	07-19-2016	7/19/2016 6:26:40 PM	14:26:40	2.0.10.147	18	GREEN	NULL	NULL	BlockProcA	NULL	Test1	NULL	NULL	NULL	NULL	NULL	NULL	1	1	1	NULL	NULL	NULL	No	NULL	NULL	NULL	NULL	NULL	NULL	10	NULL	NULL	NULL	NULL	Blank	66	48	NULL	NULL	NULL	NULL	TrialProc	NULL	NULL	NULL	NULL	NULL	NULL	NULL	NULL	NULL	NULL	NULL	NULL	NULL	NULL	NULL	NULL	Nonenol	TrialList	NULL	NULL	NULL	NULL	NULL	NULL	4	2	10	NULL	NULL	NULL	3	NULL	2	NULL	NULL	NULL	NULL	NULL	NULL	NULL	0	2	-999999	13	2689848	0	1	705	2690553	NULL	NULL	NULL	NULL	SongTrial	NULL	SoundList	NULL	NULL	8	1	10	NULL	NULL	NULL	NULL
TMA Blocker Split Nostril Olfactometer_Pilot 2	47	1	<?xml version="1.0"?>\n<Clock xmlns:dt="urn:schemas-microsoft-com:datatypes"><Description dt:dt="string">E-Prime Primary Realtime Clock</Description><StartTime><Timestamp dt:dt="int">0</Timestamp><DateUtc dt:dt="string">2016-07-19T18:26:39Z</DateUtc></StartTime><FrequencyChanges><FrequencyChange><Frequency dt:dt="r8">2793160000</Frequency><Timestamp dt:dt="r8">5.33298233245456E+15</Timestamp><Current dt:dt="r8">0</Current><DateUtc dt:dt="string">2016-07-19T18:26:39Z</DateUtc></FrequencyChange></FrequencyChanges></Clock>\n	TMA Blocker Split Nostril Olfactometer_Pilot 2-47-1	74.911	1.0.0.1473	1	0		-999999	12048	4484314	0	q	352731	4837045	-719387603	2.0.10.242	2.0.10.242	07-19-2016	7/19/2016 6:26:40 PM	14:26:40	2.0.10.147	18	GREEN	NULL	NULL	BlockProcA	NULL	Test1	NULL	NULL	NULL	NULL	NULL	NULL	1	1	1	NULL	NULL	NULL	No	NULL	NULL	NULL	NULL	NULL	NULL	11	NULL	NULL	NULL	NULL	Blank	66	24	NULL	NULL	NULL	NULL	TrialProc	NULL	NULL	NULL	NULL	NULL	NULL	NULL	NULL	NULL	NULL	NULL	NULL	NULL	NULL	NULL	NULL	Blank	TrialList	NULL	NULL	NULL	NULL	NULL	NULL	9	2	11	NULL	NULL	NULL	1	NULL	NULL	NULL	NULL	NULL	NULL	NULL	NULL	NULL	NULL	NULL	NULL	NULL	NULL	NULL	NULL	NULL	NULL	NULL	1	18	18	PrepareProc	NULL	Prepare	NULL	NULL	NULL	NULL	NULL	NULL	NULL	NULL	NULL
TMA Blocker Split Nostril Olfactometer_Pilot 2	47	1	<?xml version="1.0"?>\n<Clock xmlns:dt="urn:schemas-microsoft-com:datatypes"><Description dt:dt="string">E-Prime Primary Realtime Clock</Description><StartTime><Timestamp dt:dt="int">0</Timestamp><DateUtc dt:dt="string">2016-07-19T18:26:39Z</DateUtc></StartTime><FrequencyChanges><FrequencyChange><Frequency dt:dt="r8">2793160000</Frequency><Timestamp dt:dt="r8">5.33298233245456E+15</Timestamp><Current dt:dt="r8">0</Current><DateUtc dt:dt="string">2016-07-19T18:26:39Z</DateUtc></FrequencyChange></FrequencyChanges></Clock>\n	TMA Blocker Split Nostril Olfactometer_Pilot 2-47-1	74.911	1.0.0.1473	1	0		-999999	12048	4484314	0	q	352731	4837045	-719387603	2.0.10.242	2.0.10.242	07-19-2016	7/19/2016 6:26:40 PM	14:26:40	2.0.10.147	18	GREEN	NULL	NULL	BlockProcA	NULL	Test1	NULL	NULL	NULL	NULL	NULL	NULL	1	1	1	NULL	NULL	NULL	No	NULL	NULL	NULL	NULL	NULL	NULL	11	NULL	NULL	NULL	NULL	Blank	66	24	NULL	NULL	NULL	NULL	TrialProc	NULL	NULL	NULL	NULL	NULL	NULL	NULL	NULL	NULL	NULL	NULL	NULL	NULL	NULL	NULL	NULL	Blank	TrialList	NULL	NULL	NULL	NULL	NULL	NULL	9	2	11	NULL	NULL	NULL	2	NULL	NULL	1	11	11	NULL	Green	511	554	NULL	NULL	NULL	NULL	NULL	NULL	NULL	NULL	NULL	1	NULL	NULL	NULL	ExperimentProc	How intense is the odor?	Experiment	NULL	NULL	NULL	NULL	NULL	NULL	NULL	NULL	?
TMA Blocker Split Nostril Olfactometer_Pilot 2	47	1	<?xml version="1.0"?>\n<Clock xmlns:dt="urn:schemas-microsoft-com:datatypes"><Description dt:dt="string">E-Prime Primary Realtime Clock</Description><StartTime><Timestamp dt:dt="int">0</Timestamp><DateUtc dt:dt="string">2016-07-19T18:26:39Z</DateUtc></StartTime><FrequencyChanges><FrequencyChange><Frequency dt:dt="r8">2793160000</Frequency><Timestamp dt:dt="r8">5.33298233245456E+15</Timestamp><Current dt:dt="r8">0</Current><DateUtc dt:dt="string">2016-07-19T18:26:39Z</DateUtc></FrequencyChange></FrequencyChanges></Clock>\n	TMA Blocker Split Nostril Olfactometer_Pilot 2-47-1	74.911	1.0.0.1473	1	0		-999999	12048	4484314	0	q	352731	4837045	-719387603	2.0.10.242	2.0.10.242	07-19-2016	7/19/2016 6:26:40 PM	14:26:40	2.0.10.147	18	GREEN	NULL	NULL	BlockProcA	NULL	Test1	NULL	NULL	NULL	NULL	NULL	NULL	1	1	1	NULL	NULL	NULL	No	NULL	NULL	NULL	NULL	NULL	NULL	11	NULL	NULL	NULL	NULL	Blank	66	24	NULL	NULL	NULL	NULL	TrialProc	NULL	NULL	NULL	NULL	NULL	NULL	NULL	NULL	NULL	NULL	NULL	NULL	NULL	NULL	NULL	NULL	Blank	TrialList	NULL	NULL	NULL	NULL	NULL	NULL	9	2	11	NULL	NULL	NULL	3	NULL	2	NULL	NULL	NULL	NULL	NULL	NULL	NULL	1	2	-999999	13	2732005	0	2	651	2732656	NULL	NULL	NULL	NULL	SongTrial	NULL	SoundList	NULL	NULL	15	1	11	NULL	NULL	NULL	NULL
TMA Blocker Split Nostril Olfactometer_Pilot 2	47	1	<?xml version="1.0"?>\n<Clock xmlns:dt="urn:schemas-microsoft-com:datatypes"><Description dt:dt="string">E-Prime Primary Realtime Clock</Description><StartTime><Timestamp dt:dt="int">0</Timestamp><DateUtc dt:dt="string">2016-07-19T18:26:39Z</DateUtc></StartTime><FrequencyChanges><FrequencyChange><Frequency dt:dt="r8">2793160000</Frequency><Timestamp dt:dt="r8">5.33298233245456E+15</Timestamp><Current dt:dt="r8">0</Current><DateUtc dt:dt="string">2016-07-19T18:26:39Z</DateUtc></FrequencyChange></FrequencyChanges></Clock>\n	TMA Blocker Split Nostril Olfactometer_Pilot 2-47-1	74.911	1.0.0.1473	1	0		-999999	12048	4484314	0	q	352731	4837045	-719387603	2.0.10.242	2.0.10.242	07-19-2016	7/19/2016 6:26:40 PM	14:26:40	2.0.10.147	18	GREEN	NULL	NULL	BlockProcA	NULL	Test1	NULL	NULL	NULL	NULL	NULL	NULL	1	1	1	NULL	NULL	NULL	No	NULL	NULL	NULL	NULL	NULL	NULL	12	NULL	NULL	NULL	NULL	TMA	3	24	NULL	NULL	NULL	NULL	TrialProc	NULL	NULL	NULL	NULL	NULL	NULL	NULL	NULL	NULL	NULL	NULL	NULL	NULL	NULL	NULL	NULL	Blank	TrialList	NULL	NULL	NULL	NULL	NULL	NULL	1	2	12	NULL	NULL	NULL	1	NULL	NULL	NULL	NULL	NULL	NULL	NULL	NULL	NULL	NULL	NULL	NULL	NULL	NULL	NULL	NULL	NULL	NULL	NULL	1	19	19	PrepareProc	NULL	Prepare	NULL	NULL	NULL	NULL	NULL	NULL	NULL	NULL	NULL
TMA Blocker Split Nostril Olfactometer_Pilot 2	47	1	<?xml version="1.0"?>\n<Clock xmlns:dt="urn:schemas-microsoft-com:datatypes"><Description dt:dt="string">E-Prime Primary Realtime Clock</Description><StartTime><Timestamp dt:dt="int">0</Timestamp><DateUtc dt:dt="string">2016-07-19T18:26:39Z</DateUtc></StartTime><FrequencyChanges><FrequencyChange><Frequency dt:dt="r8">2793160000</Frequency><Timestamp dt:dt="r8">5.33298233245456E+15</Timestamp><Current dt:dt="r8">0</Current><DateUtc dt:dt="string">2016-07-19T18:26:39Z</DateUtc></FrequencyChange></FrequencyChanges></Clock>\n	TMA Blocker Split Nostril Olfactometer_Pilot 2-47-1	74.911	1.0.0.1473	1	0		-999999	12048	4484314	0	q	352731	4837045	-719387603	2.0.10.242	2.0.10.242	07-19-2016	7/19/2016 6:26:40 PM	14:26:40	2.0.10.147	18	GREEN	NULL	NULL	BlockProcA	NULL	Test1	NULL	NULL	NULL	NULL	NULL	NULL	1	1	1	NULL	NULL	NULL	No	NULL	NULL	NULL	NULL	NULL	NULL	12	NULL	NULL	NULL	NULL	TMA	3	24	NULL	NULL	NULL	NULL	TrialProc	NULL	NULL	NULL	NULL	NULL	NULL	NULL	NULL	NULL	NULL	NULL	NULL	NULL	NULL	NULL	NULL	Blank	TrialList	NULL	NULL	NULL	NULL	NULL	NULL	1	2	12	NULL	NULL	NULL	2	NULL	NULL	1	12	12	NULL	Green	465	544	NULL	NULL	NULL	NULL	NULL	NULL	NULL	NULL	NULL	1	NULL	NULL	NULL	ExperimentProc	How intense is the odor?	Experiment	NULL	NULL	NULL	NULL	NULL	NULL	NULL	NULL	?
TMA Blocker Split Nostril Olfactometer_Pilot 2	47	1	<?xml version="1.0"?>\n<Clock xmlns:dt="urn:schemas-microsoft-com:datatypes"><Description dt:dt="string">E-Prime Primary Realtime Clock</Description><StartTime><Timestamp dt:dt="int">0</Timestamp><DateUtc dt:dt="string">2016-07-19T18:26:39Z</DateUtc></StartTime><FrequencyChanges><FrequencyChange><Frequency dt:dt="r8">2793160000</Frequency><Timestamp dt:dt="r8">5.33298233245456E+15</Timestamp><Current dt:dt="r8">0</Current><DateUtc dt:dt="string">2016-07-19T18:26:39Z</DateUtc></FrequencyChange></FrequencyChanges></Clock>\n	TMA Blocker Split Nostril Olfactometer_Pilot 2-47-1	74.911	1.0.0.1473	1	0		-999999	12048	4484314	0	q	352731	4837045	-719387603	2.0.10.242	2.0.10.242	07-19-2016	7/19/2016 6:26:40 PM	14:26:40	2.0.10.147	18	GREEN	NULL	NULL	BlockProcA	NULL	Test1	NULL	NULL	NULL	NULL	NULL	NULL	1	1	1	NULL	NULL	NULL	No	NULL	NULL	NULL	NULL	NULL	NULL	12	NULL	NULL	NULL	NULL	TMA	3	24	NULL	NULL	NULL	NULL	TrialProc	NULL	NULL	NULL	NULL	NULL	NULL	NULL	NULL	NULL	NULL	NULL	NULL	NULL	NULL	NULL	NULL	Blank	TrialList	NULL	NULL	NULL	NULL	NULL	NULL	1	2	12	NULL	NULL	NULL	3	NULL	1	NULL	NULL	NULL	NULL	NULL	NULL	NULL	0	1	-999999	13	2776377	0	2	5710	2782087	NULL	NULL	NULL	NULL	SongTrial	NULL	SoundList	NULL	NULL	3	1	12	NULL	NULL	NULL	NULL
TMA Blocker Split Nostril Olfactometer_Pilot 2	47	1	<?xml version="1.0"?>\n<Clock xmlns:dt="urn:schemas-microsoft-com:datatypes"><Description dt:dt="string">E-Prime Primary Realtime Clock</Description><StartTime><Timestamp dt:dt="int">0</Timestamp><DateUtc dt:dt="string">2016-07-19T18:26:39Z</DateUtc></StartTime><FrequencyChanges><FrequencyChange><Frequency dt:dt="r8">2793160000</Frequency><Timestamp dt:dt="r8">5.33298233245456E+15</Timestamp><Current dt:dt="r8">0</Current><DateUtc dt:dt="string">2016-07-19T18:26:39Z</DateUtc></FrequencyChange></FrequencyChanges></Clock>\n	TMA Blocker Split Nostril Olfactometer_Pilot 2-47-1	74.911	1.0.0.1473	1	0		-999999	12048	4484314	0	q	352731	4837045	-719387603	2.0.10.242	2.0.10.242	07-19-2016	7/19/2016 6:26:40 PM	14:26:40	2.0.10.147	18	GREEN	NULL	NULL	BlockProcA	NULL	Test1	NULL	NULL	NULL	NULL	NULL	NULL	1	1	1	NULL	NULL	NULL	No	NULL	NULL	NULL	NULL	NULL	NULL	13	NULL	NULL	NULL	NULL	Blank	66	9	NULL	NULL	NULL	NULL	TrialProc	NULL	NULL	NULL	NULL	NULL	NULL	NULL	NULL	NULL	NULL	NULL	NULL	NULL	NULL	NULL	NULL	TMA	TrialList	NULL	NULL	NULL	NULL	NULL	NULL	2	2	13	NULL	NULL	NULL	1	NULL	NULL	NULL	NULL	NULL	NULL	NULL	NULL	NULL	NULL	NULL	NULL	NULL	NULL	NULL	NULL	NULL	NULL	NULL	1	20	20	PrepareProc	NULL	Prepare	NULL	NULL	NULL	NULL	NULL	NULL	NULL	NULL	NULL
TMA Blocker Split Nostril Olfactometer_Pilot 2	47	1	<?xml version="1.0"?>\n<Clock xmlns:dt="urn:schemas-microsoft-com:datatypes"><Description dt:dt="string">E-Prime Primary Realtime Clock</Description><StartTime><Timestamp dt:dt="int">0</Timestamp><DateUtc dt:dt="string">2016-07-19T18:26:39Z</DateUtc></StartTime><FrequencyChanges><FrequencyChange><Frequency dt:dt="r8">2793160000</Frequency><Timestamp dt:dt="r8">5.33298233245456E+15</Timestamp><Current dt:dt="r8">0</Current><DateUtc dt:dt="string">2016-07-19T18:26:39Z</DateUtc></FrequencyChange></FrequencyChanges></Clock>\n	TMA Blocker Split Nostril Olfactometer_Pilot 2-47-1	74.911	1.0.0.1473	1	0		-999999	12048	4484314	0	q	352731	4837045	-719387603	2.0.10.242	2.0.10.242	07-19-2016	7/19/2016 6:26:40 PM	14:26:40	2.0.10.147	18	GREEN	NULL	NULL	BlockProcA	NULL	Test1	NULL	NULL	NULL	NULL	NULL	NULL	1	1	1	NULL	NULL	NULL	No	NULL	NULL	NULL	NULL	NULL	NULL	13	NULL	NULL	NULL	NULL	Blank	66	9	NULL	NULL	NULL	NULL	TrialProc	NULL	NULL	NULL	NULL	NULL	NULL	NULL	NULL	NULL	NULL	NULL	NULL	NULL	NULL	NULL	NULL	TMA	TrialList	NULL	NULL	NULL	NULL	NULL	NULL	2	2	13	NULL	NULL	NULL	2	NULL	NULL	1	13	13	NULL	Green	511	505	NULL	NULL	NULL	NULL	NULL	NULL	NULL	NULL	NULL	1	NULL	NULL	NULL	ExperimentProc	How intense is the odor?	Experiment	NULL	NULL	NULL	NULL	NULL	NULL	NULL	NULL	?
TMA Blocker Split Nostril Olfactometer_Pilot 2	47	1	<?xml version="1.0"?>\n<Clock xmlns:dt="urn:schemas-microsoft-com:datatypes"><Description dt:dt="string">E-Prime Primary Realtime Clock</Description><StartTime><Timestamp dt:dt="int">0</Timestamp><DateUtc dt:dt="string">2016-07-19T18:26:39Z</DateUtc></StartTime><FrequencyChanges><FrequencyChange><Frequency dt:dt="r8">2793160000</Frequency><Timestamp dt:dt="r8">5.33298233245456E+15</Timestamp><Current dt:dt="r8">0</Current><DateUtc dt:dt="string">2016-07-19T18:26:39Z</DateUtc></FrequencyChange></FrequencyChanges></Clock>\n	TMA Blocker Split Nostril Olfactometer_Pilot 2-47-1	74.911	1.0.0.1473	1	0		-999999	12048	4484314	0	q	352731	4837045	-719387603	2.0.10.242	2.0.10.242	07-19-2016	7/19/2016 6:26:40 PM	14:26:40	2.0.10.147	18	GREEN	NULL	NULL	BlockProcA	NULL	Test1	NULL	NULL	NULL	NULL	NULL	NULL	1	1	1	NULL	NULL	NULL	No	NULL	NULL	NULL	NULL	NULL	NULL	13	NULL	NULL	NULL	NULL	Blank	66	9	NULL	NULL	NULL	NULL	TrialProc	NULL	NULL	NULL	NULL	NULL	NULL	NULL	NULL	NULL	NULL	NULL	NULL	NULL	NULL	NULL	NULL	TMA	TrialList	NULL	NULL	NULL	NULL	NULL	NULL	2	2	13	NULL	NULL	NULL	3	NULL	1	NULL	NULL	NULL	NULL	NULL	NULL	NULL	1	1	-999999	13	2823766	0	1	936	2824702	NULL	NULL	NULL	NULL	SongTrial	NULL	SoundList	NULL	NULL	13	1	13	NULL	NULL	NULL	NULL
TMA Blocker Split Nostril Olfactometer_Pilot 2	47	1	<?xml version="1.0"?>\n<Clock xmlns:dt="urn:schemas-microsoft-com:datatypes"><Description dt:dt="string">E-Prime Primary Realtime Clock</Description><StartTime><Timestamp dt:dt="int">0</Timestamp><DateUtc dt:dt="string">2016-07-19T18:26:39Z</DateUtc></StartTime><FrequencyChanges><FrequencyChange><Frequency dt:dt="r8">2793160000</Frequency><Timestamp dt:dt="r8">5.33298233245456E+15</Timestamp><Current dt:dt="r8">0</Current><DateUtc dt:dt="string">2016-07-19T18:26:39Z</DateUtc></FrequencyChange></FrequencyChanges></Clock>\n	TMA Blocker Split Nostril Olfactometer_Pilot 2-47-1	74.911	1.0.0.1473	1	0		-999999	12048	4484314	0	q	352731	4837045	-719387603	2.0.10.242	2.0.10.242	07-19-2016	7/19/2016 6:26:40 PM	14:26:40	2.0.10.147	18	GREEN	NULL	NULL	BlockProcA	NULL	Test1	NULL	NULL	NULL	NULL	NULL	NULL	1	1	1	NULL	NULL	NULL	No	NULL	NULL	NULL	NULL	NULL	NULL	14	NULL	NULL	NULL	NULL	Nonenol	72	9	NULL	NULL	NULL	NULL	TrialProc	NULL	NULL	NULL	NULL	NULL	NULL	NULL	NULL	NULL	NULL	NULL	NULL	NULL	NULL	NULL	NULL	TMA	TrialList	NULL	NULL	NULL	NULL	NULL	NULL	8	2	14	NULL	NULL	NULL	1	NULL	NULL	NULL	NULL	NULL	NULL	NULL	NULL	NULL	NULL	NULL	NULL	NULL	NULL	NULL	NULL	NULL	NULL	NULL	1	21	21	PrepareProc	NULL	Prepare	NULL	NULL	NULL	NULL	NULL	NULL	NULL	NULL	NULL
TMA Blocker Split Nostril Olfactometer_Pilot 2	47	1	<?xml version="1.0"?>\n<Clock xmlns:dt="urn:schemas-microsoft-com:datatypes"><Description dt:dt="string">E-Prime Primary Realtime Clock</Description><StartTime><Timestamp dt:dt="int">0</Timestamp><DateUtc dt:dt="string">2016-07-19T18:26:39Z</DateUtc></StartTime><FrequencyChanges><FrequencyChange><Frequency dt:dt="r8">2793160000</Frequency><Timestamp dt:dt="r8">5.33298233245456E+15</Timestamp><Current dt:dt="r8">0</Current><DateUtc dt:dt="string">2016-07-19T18:26:39Z</DateUtc></FrequencyChange></FrequencyChanges></Clock>\n	TMA Blocker Split Nostril Olfactometer_Pilot 2-47-1	74.911	1.0.0.1473	1	0		-999999	12048	4484314	0	q	352731	4837045	-719387603	2.0.10.242	2.0.10.242	07-19-2016	7/19/2016 6:26:40 PM	14:26:40	2.0.10.147	18	GREEN	NULL	NULL	BlockProcA	NULL	Test1	NULL	NULL	NULL	NULL	NULL	NULL	1	1	1	NULL	NULL	NULL	No	NULL	NULL	NULL	NULL	NULL	NULL	14	NULL	NULL	NULL	NULL	Nonenol	72	9	NULL	NULL	NULL	NULL	TrialProc	NULL	NULL	NULL	NULL	NULL	NULL	NULL	NULL	NULL	NULL	NULL	NULL	NULL	NULL	NULL	NULL	TMA	TrialList	NULL	NULL	NULL	NULL	NULL	NULL	8	2	14	NULL	NULL	NULL	2	NULL	NULL	1	14	14	NULL	Green	479	553	NULL	NULL	NULL	NULL	NULL	NULL	NULL	NULL	NULL	1	NULL	NULL	NULL	ExperimentProc	How intense is the odor?	Experiment	NULL	NULL	NULL	NULL	NULL	NULL	NULL	NULL	?
TMA Blocker Split Nostril Olfactometer_Pilot 2	47	1	<?xml version="1.0"?>\n<Clock xmlns:dt="urn:schemas-microsoft-com:datatypes"><Description dt:dt="string">E-Prime Primary Realtime Clock</Description><StartTime><Timestamp dt:dt="int">0</Timestamp><DateUtc dt:dt="string">2016-07-19T18:26:39Z</DateUtc></StartTime><FrequencyChanges><FrequencyChange><Frequency dt:dt="r8">2793160000</Frequency><Timestamp dt:dt="r8">5.33298233245456E+15</Timestamp><Current dt:dt="r8">0</Current><DateUtc dt:dt="string">2016-07-19T18:26:39Z</DateUtc></FrequencyChange></FrequencyChanges></Clock>\n	TMA Blocker Split Nostril Olfactometer_Pilot 2-47-1	74.911	1.0.0.1473	1	0		-999999	12048	4484314	0	q	352731	4837045	-719387603	2.0.10.242	2.0.10.242	07-19-2016	7/19/2016 6:26:40 PM	14:26:40	2.0.10.147	18	GREEN	NULL	NULL	BlockProcA	NULL	Test1	NULL	NULL	NULL	NULL	NULL	NULL	1	1	1	NULL	NULL	NULL	No	NULL	NULL	NULL	NULL	NULL	NULL	14	NULL	NULL	NULL	NULL	Nonenol	72	9	NULL	NULL	NULL	NULL	TrialProc	NULL	NULL	NULL	NULL	NULL	NULL	NULL	NULL	NULL	NULL	NULL	NULL	NULL	NULL	NULL	NULL	TMA	TrialList	NULL	NULL	NULL	NULL	NULL	NULL	8	2	14	NULL	NULL	NULL	3	NULL	2	NULL	NULL	NULL	NULL	NULL	NULL	NULL	1	2	-999999	27	2866377	0	2	1297	2867674	NULL	NULL	NULL	NULL	SongTrial	NULL	SoundList	NULL	NULL	6	1	14	NULL	NULL	NULL	NULL
TMA Blocker Split Nostril Olfactometer_Pilot 2	47	1	<?xml version="1.0"?>\n<Clock xmlns:dt="urn:schemas-microsoft-com:datatypes"><Description dt:dt="string">E-Prime Primary Realtime Clock</Description><StartTime><Timestamp dt:dt="int">0</Timestamp><DateUtc dt:dt="string">2016-07-19T18:26:39Z</DateUtc></StartTime><FrequencyChanges><FrequencyChange><Frequency dt:dt="r8">2793160000</Frequency><Timestamp dt:dt="r8">5.33298233245456E+15</Timestamp><Current dt:dt="r8">0</Current><DateUtc dt:dt="string">2016-07-19T18:26:39Z</DateUtc></FrequencyChange></FrequencyChanges></Clock>\n	TMA Blocker Split Nostril Olfactometer_Pilot 2-47-1	74.911	1.0.0.1473	1	0		-999999	12048	4484314	0	q	352731	4837045	-719387603	2.0.10.242	2.0.10.242	07-19-2016	7/19/2016 6:26:40 PM	14:26:40	2.0.10.147	18	GREEN	NULL	NULL	BlockProcA	NULL	Test1	NULL	NULL	NULL	NULL	NULL	NULL	1	1	1	NULL	NULL	NULL	No	NULL	NULL	NULL	NULL	NULL	NULL	15	NULL	NULL	NULL	NULL	Nonenol	72	24	NULL	NULL	NULL	NULL	TrialProc	NULL	NULL	NULL	NULL	NULL	NULL	NULL	NULL	NULL	NULL	NULL	NULL	NULL	NULL	NULL	NULL	Blank	TrialList	NULL	NULL	NULL	NULL	NULL	NULL	3	2	15	NULL	NULL	NULL	1	NULL	NULL	NULL	NULL	NULL	NULL	NULL	NULL	NULL	NULL	NULL	NULL	NULL	NULL	NULL	NULL	NULL	NULL	NULL	1	22	22	PrepareProc	NULL	Prepare	NULL	NULL	NULL	NULL	NULL	NULL	NULL	NULL	NULL
TMA Blocker Split Nostril Olfactometer_Pilot 2	47	1	<?xml version="1.0"?>\n<Clock xmlns:dt="urn:schemas-microsoft-com:datatypes"><Description dt:dt="string">E-Prime Primary Realtime Clock</Description><StartTime><Timestamp dt:dt="int">0</Timestamp><DateUtc dt:dt="string">2016-07-19T18:26:39Z</DateUtc></StartTime><FrequencyChanges><FrequencyChange><Frequency dt:dt="r8">2793160000</Frequency><Timestamp dt:dt="r8">5.33298233245456E+15</Timestamp><Current dt:dt="r8">0</Current><DateUtc dt:dt="string">2016-07-19T18:26:39Z</DateUtc></FrequencyChange></FrequencyChanges></Clock>\n	TMA Blocker Split Nostril Olfactometer_Pilot 2-47-1	74.911	1.0.0.1473	1	0		-999999	12048	4484314	0	q	352731	4837045	-719387603	2.0.10.242	2.0.10.242	07-19-2016	7/19/2016 6:26:40 PM	14:26:40	2.0.10.147	18	GREEN	NULL	NULL	BlockProcA	NULL	Test1	NULL	NULL	NULL	NULL	NULL	NULL	1	1	1	NULL	NULL	NULL	No	NULL	NULL	NULL	NULL	NULL	NULL	15	NULL	NULL	NULL	NULL	Nonenol	72	24	NULL	NULL	NULL	NULL	TrialProc	NULL	NULL	NULL	NULL	NULL	NULL	NULL	NULL	NULL	NULL	NULL	NULL	NULL	NULL	NULL	NULL	Blank	TrialList	NULL	NULL	NULL	NULL	NULL	NULL	3	2	15	NULL	NULL	NULL	2	NULL	NULL	1	15	15	NULL	Green	488	494	NULL	NULL	NULL	NULL	NULL	NULL	NULL	NULL	NULL	1	NULL	NULL	NULL	ExperimentProc	How intense is the odor?	Experiment	NULL	NULL	NULL	NULL	NULL	NULL	NULL	NULL	?
TMA Blocker Split Nostril Olfactometer_Pilot 2	47	1	<?xml version="1.0"?>\n<Clock xmlns:dt="urn:schemas-microsoft-com:datatypes"><Description dt:dt="string">E-Prime Primary Realtime Clock</Description><StartTime><Timestamp dt:dt="int">0</Timestamp><DateUtc dt:dt="string">2016-07-19T18:26:39Z</DateUtc></StartTime><FrequencyChanges><FrequencyChange><Frequency dt:dt="r8">2793160000</Frequency><Timestamp dt:dt="r8">5.33298233245456E+15</Timestamp><Current dt:dt="r8">0</Current><DateUtc dt:dt="string">2016-07-19T18:26:39Z</DateUtc></FrequencyChange></FrequencyChanges></Clock>\n	TMA Blocker Split Nostril Olfactometer_Pilot 2-47-1	74.911	1.0.0.1473	1	0		-999999	12048	4484314	0	q	352731	4837045	-719387603	2.0.10.242	2.0.10.242	07-19-2016	7/19/2016 6:26:40 PM	14:26:40	2.0.10.147	18	GREEN	NULL	NULL	BlockProcA	NULL	Test1	NULL	NULL	NULL	NULL	NULL	NULL	1	1	1	NULL	NULL	NULL	No	NULL	NULL	NULL	NULL	NULL	NULL	15	NULL	NULL	NULL	NULL	Nonenol	72	24	NULL	NULL	NULL	NULL	TrialProc	NULL	NULL	NULL	NULL	NULL	NULL	NULL	NULL	NULL	NULL	NULL	NULL	NULL	NULL	NULL	NULL	Blank	TrialList	NULL	NULL	NULL	NULL	NULL	NULL	3	2	15	NULL	NULL	NULL	3	NULL	2	NULL	NULL	NULL	NULL	NULL	NULL	NULL	1	2	-999999	13	2908787	0	2	5039	2913826	NULL	NULL	NULL	NULL	SongTrial	NULL	SoundList	NULL	NULL	18	1	15	NULL	NULL	NULL	NULL
TMA Blocker Split Nostril Olfactometer_Pilot 2	47	1	<?xml version="1.0"?>\n<Clock xmlns:dt="urn:schemas-microsoft-com:datatypes"><Description dt:dt="string">E-Prime Primary Realtime Clock</Description><StartTime><Timestamp dt:dt="int">0</Timestamp><DateUtc dt:dt="string">2016-07-19T18:26:39Z</DateUtc></StartTime><FrequencyChanges><FrequencyChange><Frequency dt:dt="r8">2793160000</Frequency><Timestamp dt:dt="r8">5.33298233245456E+15</Timestamp><Current dt:dt="r8">0</Current><DateUtc dt:dt="string">2016-07-19T18:26:39Z</DateUtc></FrequencyChange></FrequencyChanges></Clock>\n	TMA Blocker Split Nostril Olfactometer_Pilot 2-47-1	74.911	1.0.0.1473	1	0		-999999	12048	4484314	0	q	352731	4837045	-719387603	2.0.10.242	2.0.10.242	07-19-2016	7/19/2016 6:26:40 PM	14:26:40	2.0.10.147	18	GREEN	NULL	NULL	BlockProcA	NULL	Test1	NULL	NULL	NULL	NULL	NULL	NULL	1	1	1	NULL	NULL	NULL	No	NULL	NULL	NULL	NULL	NULL	NULL	16	NULL	NULL	NULL	NULL	TMA	3	48	NULL	NULL	NULL	NULL	TrialProc	NULL	NULL	NULL	NULL	NULL	NULL	NULL	NULL	NULL	NULL	NULL	NULL	NULL	NULL	NULL	NULL	Nonenol	TrialList	NULL	NULL	NULL	NULL	NULL	NULL	7	2	16	NULL	NULL	NULL	1	NULL	NULL	NULL	NULL	NULL	NULL	NULL	NULL	NULL	NULL	NULL	NULL	NULL	NULL	NULL	NULL	NULL	NULL	NULL	1	23	23	PrepareProc	NULL	Prepare	NULL	NULL	NULL	NULL	NULL	NULL	NULL	NULL	NULL
TMA Blocker Split Nostril Olfactometer_Pilot 2	47	1	<?xml version="1.0"?>\n<Clock xmlns:dt="urn:schemas-microsoft-com:datatypes"><Description dt:dt="string">E-Prime Primary Realtime Clock</Description><StartTime><Timestamp dt:dt="int">0</Timestamp><DateUtc dt:dt="string">2016-07-19T18:26:39Z</DateUtc></StartTime><FrequencyChanges><FrequencyChange><Frequency dt:dt="r8">2793160000</Frequency><Timestamp dt:dt="r8">5.33298233245456E+15</Timestamp><Current dt:dt="r8">0</Current><DateUtc dt:dt="string">2016-07-19T18:26:39Z</DateUtc></FrequencyChange></FrequencyChanges></Clock>\n	TMA Blocker Split Nostril Olfactometer_Pilot 2-47-1	74.911	1.0.0.1473	1	0		-999999	12048	4484314	0	q	352731	4837045	-719387603	2.0.10.242	2.0.10.242	07-19-2016	7/19/2016 6:26:40 PM	14:26:40	2.0.10.147	18	GREEN	NULL	NULL	BlockProcA	NULL	Test1	NULL	NULL	NULL	NULL	NULL	NULL	1	1	1	NULL	NULL	NULL	No	NULL	NULL	NULL	NULL	NULL	NULL	16	NULL	NULL	NULL	NULL	TMA	3	48	NULL	NULL	NULL	NULL	TrialProc	NULL	NULL	NULL	NULL	NULL	NULL	NULL	NULL	NULL	NULL	NULL	NULL	NULL	NULL	NULL	NULL	Nonenol	TrialList	NULL	NULL	NULL	NULL	NULL	NULL	7	2	16	NULL	NULL	NULL	2	NULL	NULL	1	16	16	NULL	Green	419	549	NULL	NULL	NULL	NULL	NULL	NULL	NULL	NULL	NULL	1	NULL	NULL	NULL	ExperimentProc	How intense is the odor?	Experiment	NULL	NULL	NULL	NULL	NULL	NULL	NULL	NULL	?
TMA Blocker Split Nostril Olfactometer_Pilot 2	47	1	<?xml version="1.0"?>\n<Clock xmlns:dt="urn:schemas-microsoft-com:datatypes"><Description dt:dt="string">E-Prime Primary Realtime Clock</Description><StartTime><Timestamp dt:dt="int">0</Timestamp><DateUtc dt:dt="string">2016-07-19T18:26:39Z</DateUtc></StartTime><FrequencyChanges><FrequencyChange><Frequency dt:dt="r8">2793160000</Frequency><Timestamp dt:dt="r8">5.33298233245456E+15</Timestamp><Current dt:dt="r8">0</Current><DateUtc dt:dt="string">2016-07-19T18:26:39Z</DateUtc></FrequencyChange></FrequencyChanges></Clock>\n	TMA Blocker Split Nostril Olfactometer_Pilot 2-47-1	74.911	1.0.0.1473	1	0		-999999	12048	4484314	0	q	352731	4837045	-719387603	2.0.10.242	2.0.10.242	07-19-2016	7/19/2016 6:26:40 PM	14:26:40	2.0.10.147	18	GREEN	NULL	NULL	BlockProcA	NULL	Test1	NULL	NULL	NULL	NULL	NULL	NULL	1	1	1	NULL	NULL	NULL	No	NULL	NULL	NULL	NULL	NULL	NULL	16	NULL	NULL	NULL	NULL	TMA	3	48	NULL	NULL	NULL	NULL	TrialProc	NULL	NULL	NULL	NULL	NULL	NULL	NULL	NULL	NULL	NULL	NULL	NULL	NULL	NULL	NULL	NULL	Nonenol	TrialList	NULL	NULL	NULL	NULL	NULL	NULL	7	2	16	NULL	NULL	NULL	3	NULL	1	NULL	NULL	NULL	NULL	NULL	NULL	NULL	1	1	-999999	13	2957137	0	1	1264	2958401	NULL	NULL	NULL	NULL	SongTrial	NULL	SoundList	NULL	NULL	14	1	16	NULL	NULL	NULL	NULL
TMA Blocker Split Nostril Olfactometer_Pilot 2	47	1	<?xml version="1.0"?>\n<Clock xmlns:dt="urn:schemas-microsoft-com:datatypes"><Description dt:dt="string">E-Prime Primary Realtime Clock</Description><StartTime><Timestamp dt:dt="int">0</Timestamp><DateUtc dt:dt="string">2016-07-19T18:26:39Z</DateUtc></StartTime><FrequencyChanges><FrequencyChange><Frequency dt:dt="r8">2793160000</Frequency><Timestamp dt:dt="r8">5.33298233245456E+15</Timestamp><Current dt:dt="r8">0</Current><DateUtc dt:dt="string">2016-07-19T18:26:39Z</DateUtc></FrequencyChange></FrequencyChanges></Clock>\n	TMA Blocker Split Nostril Olfactometer_Pilot 2-47-1	74.911	1.0.0.1473	1	0		-999999	12048	4484314	0	q	352731	4837045	-719387603	2.0.10.242	2.0.10.242	07-19-2016	7/19/2016 6:26:40 PM	14:26:40	2.0.10.147	18	GREEN	NULL	NULL	BlockProcA	NULL	Test1	NULL	NULL	NULL	NULL	NULL	NULL	1	1	1	NULL	NULL	NULL	No	NULL	NULL	NULL	NULL	NULL	NULL	17	NULL	NULL	NULL	NULL	Blank	66	33	NULL	NULL	NULL	NULL	TrialProc	NULL	NULL	NULL	NULL	NULL	NULL	NULL	NULL	NULL	NULL	NULL	NULL	NULL	NULL	NULL	NULL	TMA+Nonenol	TrialList	NULL	NULL	NULL	NULL	NULL	NULL	6	2	17	NULL	NULL	NULL	1	NULL	NULL	NULL	NULL	NULL	NULL	NULL	NULL	NULL	NULL	NULL	NULL	NULL	NULL	NULL	NULL	NULL	NULL	NULL	1	24	24	PrepareProc	NULL	Prepare	NULL	NULL	NULL	NULL	NULL	NULL	NULL	NULL	NULL
TMA Blocker Split Nostril Olfactometer_Pilot 2	47	1	<?xml version="1.0"?>\n<Clock xmlns:dt="urn:schemas-microsoft-com:datatypes"><Description dt:dt="string">E-Prime Primary Realtime Clock</Description><StartTime><Timestamp dt:dt="int">0</Timestamp><DateUtc dt:dt="string">2016-07-19T18:26:39Z</DateUtc></StartTime><FrequencyChanges><FrequencyChange><Frequency dt:dt="r8">2793160000</Frequency><Timestamp dt:dt="r8">5.33298233245456E+15</Timestamp><Current dt:dt="r8">0</Current><DateUtc dt:dt="string">2016-07-19T18:26:39Z</DateUtc></FrequencyChange></FrequencyChanges></Clock>\n	TMA Blocker Split Nostril Olfactometer_Pilot 2-47-1	74.911	1.0.0.1473	1	0		-999999	12048	4484314	0	q	352731	4837045	-719387603	2.0.10.242	2.0.10.242	07-19-2016	7/19/2016 6:26:40 PM	14:26:40	2.0.10.147	18	GREEN	NULL	NULL	BlockProcA	NULL	Test1	NULL	NULL	NULL	NULL	NULL	NULL	1	1	1	NULL	NULL	NULL	No	NULL	NULL	NULL	NULL	NULL	NULL	17	NULL	NULL	NULL	NULL	Blank	66	33	NULL	NULL	NULL	NULL	TrialProc	NULL	NULL	NULL	NULL	NULL	NULL	NULL	NULL	NULL	NULL	NULL	NULL	NULL	NULL	NULL	NULL	TMA+Nonenol	TrialList	NULL	NULL	NULL	NULL	NULL	NULL	6	2	17	NULL	NULL	NULL	2	NULL	NULL	1	17	17	NULL	Green	538	458	NULL	NULL	NULL	NULL	NULL	NULL	NULL	NULL	NULL	1	NULL	NULL	NULL	ExperimentProc	How intense is the odor?	Experiment	NULL	NULL	NULL	NULL	NULL	NULL	NULL	NULL	?
TMA Blocker Split Nostril Olfactometer_Pilot 2	47	1	<?xml version="1.0"?>\n<Clock xmlns:dt="urn:schemas-microsoft-com:datatypes"><Description dt:dt="string">E-Prime Primary Realtime Clock</Description><StartTime><Timestamp dt:dt="int">0</Timestamp><DateUtc dt:dt="string">2016-07-19T18:26:39Z</DateUtc></StartTime><FrequencyChanges><FrequencyChange><Frequency dt:dt="r8">2793160000</Frequency><Timestamp dt:dt="r8">5.33298233245456E+15</Timestamp><Current dt:dt="r8">0</Current><DateUtc dt:dt="string">2016-07-19T18:26:39Z</DateUtc></FrequencyChange></FrequencyChanges></Clock>\n	TMA Blocker Split Nostril Olfactometer_Pilot 2-47-1	74.911	1.0.0.1473	1	0		-999999	12048	4484314	0	q	352731	4837045	-719387603	2.0.10.242	2.0.10.242	07-19-2016	7/19/2016 6:26:40 PM	14:26:40	2.0.10.147	18	GREEN	NULL	NULL	BlockProcA	NULL	Test1	NULL	NULL	NULL	NULL	NULL	NULL	1	1	1	NULL	NULL	NULL	No	NULL	NULL	NULL	NULL	NULL	NULL	17	NULL	NULL	NULL	NULL	Blank	66	33	NULL	NULL	NULL	NULL	TrialProc	NULL	NULL	NULL	NULL	NULL	NULL	NULL	NULL	NULL	NULL	NULL	NULL	NULL	NULL	NULL	NULL	TMA+Nonenol	TrialList	NULL	NULL	NULL	NULL	NULL	NULL	6	2	17	NULL	NULL	NULL	3	NULL	2	NULL	NULL	NULL	NULL	NULL	NULL	NULL	0	2	-999999	13	3000241	0	1	687	3000928	NULL	NULL	NULL	NULL	SongTrial	NULL	SoundList	NULL	NULL	12	1	17	NULL	NULL	NULL	NULL
TMA Blocker Split Nostril Olfactometer_Pilot 2	47	1	<?xml version="1.0"?>\n<Clock xmlns:dt="urn:schemas-microsoft-com:datatypes"><Description dt:dt="string">E-Prime Primary Realtime Clock</Description><StartTime><Timestamp dt:dt="int">0</Timestamp><DateUtc dt:dt="string">2016-07-19T18:26:39Z</DateUtc></StartTime><FrequencyChanges><FrequencyChange><Frequency dt:dt="r8">2793160000</Frequency><Timestamp dt:dt="r8">5.33298233245456E+15</Timestamp><Current dt:dt="r8">0</Current><DateUtc dt:dt="string">2016-07-19T18:26:39Z</DateUtc></FrequencyChange></FrequencyChanges></Clock>\n	TMA Blocker Split Nostril Olfactometer_Pilot 2-47-1	74.911	1.0.0.1473	1	0		-999999	12048	4484314	0	q	352731	4837045	-719387603	2.0.10.242	2.0.10.242	07-19-2016	7/19/2016 6:26:40 PM	14:26:40	2.0.10.147	18	GREEN	NULL	NULL	BlockProcA	NULL	Test1	NULL	NULL	NULL	NULL	NULL	NULL	1	1	1	NULL	NULL	NULL	No	NULL	NULL	NULL	NULL	NULL	NULL	18	NULL	NULL	NULL	NULL	TMA+Nonenol	9	24	NULL	NULL	NULL	NULL	TrialProc	NULL	NULL	NULL	NULL	NULL	NULL	NULL	NULL	NULL	NULL	NULL	NULL	NULL	NULL	NULL	NULL	Blank	TrialList	NULL	NULL	NULL	NULL	NULL	NULL	5	2	18	NULL	NULL	NULL	1	NULL	NULL	NULL	NULL	NULL	NULL	NULL	NULL	NULL	NULL	NULL	NULL	NULL	NULL	NULL	NULL	NULL	NULL	NULL	1	25	25	PrepareProc	NULL	Prepare	NULL	NULL	NULL	NULL	NULL	NULL	NULL	NULL	NULL
