ExperimentName	Subject	Session	Clock.Information	DataFile.Basename	Display.RefreshRate	ExperimentVersion	Group	Menu1.ACC	Menu1.CRESP	Menu1.DurationError	Menu1.OnsetDelay	Menu1.OnsetTime	Menu1.OnsetToOnsetTime	Menu1.RESP	Menu1.RT	Menu1.RTTime	RandomSeed	RuntimeVersion	RuntimeVersionExpected	SessionDate	SessionStartDateTimeUtc	SessionTime	StudioVersion	Block	Antag	Green[Block]	IntensityRatingTraining[Block]	Procedure[Block]	Question[Block]	Running[Block]	ScaleTraining	ScaleTraining.Cycle	ScaleTraining.Sample	SniffingInstructionsList	SniffingInstructionsList.Cycle	SniffingInstructionsList.Sample	Test1	Test1.Cycle	Test1.Sample	Test2	Test2.Cycle	Test2.Sample	TestMode	Train1	Train1.Cycle	Train1.Sample	Train2	Train2.Cycle	Train2.Sample	Trial	CorrectAnswer[Trial]	Descriptor	Green[Trial]	IntensityRatingTraining[Trial]	LeftType	OdorLeft	OdorRight	OdorType	Prepare[Trial]	Prepare.Cycle[Trial]	Prepare.Sample[Trial]	Procedure[Trial]	Question[Trial]	QuizList	QuizList.Cycle	QuizList.Sample	QuizList2	QuizList2.Cycle	QuizList2.Sample	QuizPage.ACC	QuizPage.CRESP	QuizPage.DurationError	QuizPage.OnsetDelay	QuizPage.OnsetTime	QuizPage.OnsetToOnsetTime	QuizPage.RESP	QuizPage.RT	QuizPage.RTTime	RightType	Running[Trial]	TrainList	TrainList.Cycle	TrainList.Sample	TrainList2	TrainList2.Cycle	TrainList2.Sample	TrialList	TrialList.Cycle	TrialList.Sample	TrialList2	TrialList2.Cycle	TrialList2.Sample	SubTrial	Band	CorrectAnswer[SubTrial]	Experiment	Experiment.Cycle	Experiment.Sample	Gender	Green[SubTrial]	IntensityRatingAntag	IntensityRatingFishy	MorF.ACC	MorF.CRESP	MorF.DurationError	MorF.OnsetDelay	MorF.OnsetTime	MorF.OnsetToOnsetTime	MorF.RESP	MorF.RT	MorF.RTTime	OdorAndConcentration	Prepare[SubTrial]	Prepare.Cycle[SubTrial]	Prepare.Sample[SubTrial]	Procedure[SubTrial]	Question[SubTrial]	Running[SubTrial]	SongName	SongTitle	SoundList	SoundList.Cycle	SoundList.Sample	SoundList2	SoundList2.Cycle	SoundList2.Sample	TrialNo
TMA Blocker Split Nostril Olfactometer_Pilot 2	48	1	<?xml version="1.0"?>\n<Clock xmlns:dt="urn:schemas-microsoft-com:datatypes"><Description dt:dt="string">E-Prime Primary Realtime Clock</Description><StartTime><Timestamp dt:dt="int">0</Timestamp><DateUtc dt:dt="string">2016-07-19T19:58:34Z</DateUtc></StartTime><FrequencyChanges><FrequencyChange><Frequency dt:dt="r8">2793160000</Frequency><Timestamp dt:dt="r8">5.34838117109329E+15</Timestamp><Current dt:dt="r8">0</Current><DateUtc dt:dt="string">2016-07-19T19:58:34Z</DateUtc></FrequencyChange></FrequencyChanges></Clock>\n	TMA Blocker Split Nostril Olfactometer_Pilot 2-48-1	74.912	1.0.0.1473	1	0		-999999	12048	3506901	0	q	67703	3574604	690951554	2.0.10.242	2.0.10.242	07-19-2016	7/19/2016 7:58:34 PM	15:58:34	2.0.10.147	1	NULL		477	ScaleTrainingProc	The sweetness of cotton candy	ScaleTraining	12	2	1	NULL	NULL	NULL	NULL	NULL	NULL	NULL	NULL	NULL	NULL	NULL	NULL	NULL	NULL	NULL	NULL	NULL	NULL	NULL	NULL	NULL	NULL	NULL	NULL	NULL	NULL	NULL	NULL	NULL	NULL	NULL	NULL	NULL	NULL	NULL	NULL	NULL	NULL	NULL	NULL	NULL	NULL	NULL	NULL	NULL	NULL	NULL	NULL	NULL	NULL	NULL	NULL	NULL	NULL	NULL	NULL	NULL	NULL	NULL	NULL	NULL	NULL	NULL	NULL	NULL	NULL	NULL	NULL	NULL	NULL	NULL	NULL	NULL	NULL	NULL	NULL	NULL	NULL	NULL	NULL	NULL	NULL	NULL	NULL	NULL	NULL	NULL	NULL	NULL	NULL	NULL	NULL	NULL	NULL
TMA Blocker Split Nostril Olfactometer_Pilot 2	48	1	<?xml version="1.0"?>\n<Clock xmlns:dt="urn:schemas-microsoft-com:datatypes"><Description dt:dt="string">E-Prime Primary Realtime Clock</Description><StartTime><Timestamp dt:dt="int">0</Timestamp><DateUtc dt:dt="string">2016-07-19T19:58:34Z</DateUtc></StartTime><FrequencyChanges><FrequencyChange><Frequency dt:dt="r8">2793160000</Frequency><Timestamp dt:dt="r8">5.34838117109329E+15</Timestamp><Current dt:dt="r8">0</Current><DateUtc dt:dt="string">2016-07-19T19:58:34Z</DateUtc></FrequencyChange></FrequencyChanges></Clock>\n	TMA Blocker Split Nostril Olfactometer_Pilot 2-48-1	74.912	1.0.0.1473	1	0		-999999	12048	3506901	0	q	67703	3574604	690951554	2.0.10.242	2.0.10.242	07-19-2016	7/19/2016 7:58:34 PM	15:58:34	2.0.10.147	2	NULL		116	ScaleTrainingProc	The heat from dipping your hand in scalding hot water	ScaleTraining	3	2	2	NULL	NULL	NULL	NULL	NULL	NULL	NULL	NULL	NULL	NULL	NULL	NULL	NULL	NULL	NULL	NULL	NULL	NULL	NULL	NULL	NULL	NULL	NULL	NULL	NULL	NULL	NULL	NULL	NULL	NULL	NULL	NULL	NULL	NULL	NULL	NULL	NULL	NULL	NULL	NULL	NULL	NULL	NULL	NULL	NULL	NULL	NULL	NULL	NULL	NULL	NULL	NULL	NULL	NULL	NULL	NULL	NULL	NULL	NULL	NULL	NULL	NULL	NULL	NULL	NULL	NULL	NULL	NULL	NULL	NULL	NULL	NULL	NULL	NULL	NULL	NULL	NULL	NULL	NULL	NULL	NULL	NULL	NULL	NULL	NULL	NULL	NULL	NULL	NULL	NULL	NULL	NULL	NULL	NULL
TMA Blocker Split Nostril Olfactometer_Pilot 2	48	1	<?xml version="1.0"?>\n<Clock xmlns:dt="urn:schemas-microsoft-com:datatypes"><Description dt:dt="string">E-Prime Primary Realtime Clock</Description><StartTime><Timestamp dt:dt="int">0</Timestamp><DateUtc dt:dt="string">2016-07-19T19:58:34Z</DateUtc></StartTime><FrequencyChanges><FrequencyChange><Frequency dt:dt="r8">2793160000</Frequency><Timestamp dt:dt="r8">5.34838117109329E+15</Timestamp><Current dt:dt="r8">0</Current><DateUtc dt:dt="string">2016-07-19T19:58:34Z</DateUtc></FrequencyChange></FrequencyChanges></Clock>\n	TMA Blocker Split Nostril Olfactometer_Pilot 2-48-1	74.912	1.0.0.1473	1	0		-999999	12048	3506901	0	q	67703	3574604	690951554	2.0.10.242	2.0.10.242	07-19-2016	7/19/2016 7:58:34 PM	15:58:34	2.0.10.147	3	NULL		287	ScaleTrainingProc	The brightest light you have ever seen	ScaleTraining	1	2	3	NULL	NULL	NULL	NULL	NULL	NULL	NULL	NULL	NULL	NULL	NULL	NULL	NULL	NULL	NULL	NULL	NULL	NULL	NULL	NULL	NULL	NULL	NULL	NULL	NULL	NULL	NULL	NULL	NULL	NULL	NULL	NULL	NULL	NULL	NULL	NULL	NULL	NULL	NULL	NULL	NULL	NULL	NULL	NULL	NULL	NULL	NULL	NULL	NULL	NULL	NULL	NULL	NULL	NULL	NULL	NULL	NULL	NULL	NULL	NULL	NULL	NULL	NULL	NULL	NULL	NULL	NULL	NULL	NULL	NULL	NULL	NULL	NULL	NULL	NULL	NULL	NULL	NULL	NULL	NULL	NULL	NULL	NULL	NULL	NULL	NULL	NULL	NULL	NULL	NULL	NULL	NULL	NULL	NULL
TMA Blocker Split Nostril Olfactometer_Pilot 2	48	1	<?xml version="1.0"?>\n<Clock xmlns:dt="urn:schemas-microsoft-com:datatypes"><Description dt:dt="string">E-Prime Primary Realtime Clock</Description><StartTime><Timestamp dt:dt="int">0</Timestamp><DateUtc dt:dt="string">2016-07-19T19:58:34Z</DateUtc></StartTime><FrequencyChanges><FrequencyChange><Frequency dt:dt="r8">2793160000</Frequency><Timestamp dt:dt="r8">5.34838117109329E+15</Timestamp><Current dt:dt="r8">0</Current><DateUtc dt:dt="string">2016-07-19T19:58:34Z</DateUtc></FrequencyChange></FrequencyChanges></Clock>\n	TMA Blocker Split Nostril Olfactometer_Pilot 2-48-1	74.912	1.0.0.1473	1	0		-999999	12048	3506901	0	q	67703	3574604	690951554	2.0.10.242	2.0.10.242	07-19-2016	7/19/2016 7:58:34 PM	15:58:34	2.0.10.147	4	NULL		95	ScaleTrainingProc	The brigtness of a well-lit room	ScaleTraining	5	2	4	NULL	NULL	NULL	NULL	NULL	NULL	NULL	NULL	NULL	NULL	NULL	NULL	NULL	NULL	NULL	NULL	NULL	NULL	NULL	NULL	NULL	NULL	NULL	NULL	NULL	NULL	NULL	NULL	NULL	NULL	NULL	NULL	NULL	NULL	NULL	NULL	NULL	NULL	NULL	NULL	NULL	NULL	NULL	NULL	NULL	NULL	NULL	NULL	NULL	NULL	NULL	NULL	NULL	NULL	NULL	NULL	NULL	NULL	NULL	NULL	NULL	NULL	NULL	NULL	NULL	NULL	NULL	NULL	NULL	NULL	NULL	NULL	NULL	NULL	NULL	NULL	NULL	NULL	NULL	NULL	NULL	NULL	NULL	NULL	NULL	NULL	NULL	NULL	NULL	NULL	NULL	NULL	NULL	NULL
TMA Blocker Split Nostril Olfactometer_Pilot 2	48	1	<?xml version="1.0"?>\n<Clock xmlns:dt="urn:schemas-microsoft-com:datatypes"><Description dt:dt="string">E-Prime Primary Realtime Clock</Description><StartTime><Timestamp dt:dt="int">0</Timestamp><DateUtc dt:dt="string">2016-07-19T19:58:34Z</DateUtc></StartTime><FrequencyChanges><FrequencyChange><Frequency dt:dt="r8">2793160000</Frequency><Timestamp dt:dt="r8">5.34838117109329E+15</Timestamp><Current dt:dt="r8">0</Current><DateUtc dt:dt="string">2016-07-19T19:58:34Z</DateUtc></FrequencyChange></FrequencyChanges></Clock>\n	TMA Blocker Split Nostril Olfactometer_Pilot 2-48-1	74.912	1.0.0.1473	1	0		-999999	12048	3506901	0	q	67703	3574604	690951554	2.0.10.242	2.0.10.242	07-19-2016	7/19/2016 7:58:34 PM	15:58:34	2.0.10.147	5	NULL		196	ScaleTrainingProc	The warmth of a summer breeze on your face	ScaleTraining	10	2	5	NULL	NULL	NULL	NULL	NULL	NULL	NULL	NULL	NULL	NULL	NULL	NULL	NULL	NULL	NULL	NULL	NULL	NULL	NULL	NULL	NULL	NULL	NULL	NULL	NULL	NULL	NULL	NULL	NULL	NULL	NULL	NULL	NULL	NULL	NULL	NULL	NULL	NULL	NULL	NULL	NULL	NULL	NULL	NULL	NULL	NULL	NULL	NULL	NULL	NULL	NULL	NULL	NULL	NULL	NULL	NULL	NULL	NULL	NULL	NULL	NULL	NULL	NULL	NULL	NULL	NULL	NULL	NULL	NULL	NULL	NULL	NULL	NULL	NULL	NULL	NULL	NULL	NULL	NULL	NULL	NULL	NULL	NULL	NULL	NULL	NULL	NULL	NULL	NULL	NULL	NULL	NULL	NULL	NULL
TMA Blocker Split Nostril Olfactometer_Pilot 2	48	1	<?xml version="1.0"?>\n<Clock xmlns:dt="urn:schemas-microsoft-com:datatypes"><Description dt:dt="string">E-Prime Primary Realtime Clock</Description><StartTime><Timestamp dt:dt="int">0</Timestamp><DateUtc dt:dt="string">2016-07-19T19:58:34Z</DateUtc></StartTime><FrequencyChanges><FrequencyChange><Frequency dt:dt="r8">2793160000</Frequency><Timestamp dt:dt="r8">5.34838117109329E+15</Timestamp><Current dt:dt="r8">0</Current><DateUtc dt:dt="string">2016-07-19T19:58:34Z</DateUtc></FrequencyChange></FrequencyChanges></Clock>\n	TMA Blocker Split Nostril Olfactometer_Pilot 2-48-1	74.912	1.0.0.1473	1	0		-999999	12048	3506901	0	q	67703	3574604	690951554	2.0.10.242	2.0.10.242	07-19-2016	7/19/2016 7:58:34 PM	15:58:34	2.0.10.147	6	NULL		547	ScaleTrainingProc	The loudness of a whisper	ScaleTraining	8	2	6	NULL	NULL	NULL	NULL	NULL	NULL	NULL	NULL	NULL	NULL	NULL	NULL	NULL	NULL	NULL	NULL	NULL	NULL	NULL	NULL	NULL	NULL	NULL	NULL	NULL	NULL	NULL	NULL	NULL	NULL	NULL	NULL	NULL	NULL	NULL	NULL	NULL	NULL	NULL	NULL	NULL	NULL	NULL	NULL	NULL	NULL	NULL	NULL	NULL	NULL	NULL	NULL	NULL	NULL	NULL	NULL	NULL	NULL	NULL	NULL	NULL	NULL	NULL	NULL	NULL	NULL	NULL	NULL	NULL	NULL	NULL	NULL	NULL	NULL	NULL	NULL	NULL	NULL	NULL	NULL	NULL	NULL	NULL	NULL	NULL	NULL	NULL	NULL	NULL	NULL	NULL	NULL	NULL	NULL
TMA Blocker Split Nostril Olfactometer_Pilot 2	48	1	<?xml version="1.0"?>\n<Clock xmlns:dt="urn:schemas-microsoft-com:datatypes"><Description dt:dt="string">E-Prime Primary Realtime Clock</Description><StartTime><Timestamp dt:dt="int">0</Timestamp><DateUtc dt:dt="string">2016-07-19T19:58:34Z</DateUtc></StartTime><FrequencyChanges><FrequencyChange><Frequency dt:dt="r8">2793160000</Frequency><Timestamp dt:dt="r8">5.34838117109329E+15</Timestamp><Current dt:dt="r8">0</Current><DateUtc dt:dt="string">2016-07-19T19:58:34Z</DateUtc></FrequencyChange></FrequencyChanges></Clock>\n	TMA Blocker Split Nostril Olfactometer_Pilot 2-48-1	74.912	1.0.0.1473	1	0		-999999	12048	3506901	0	q	67703	3574604	690951554	2.0.10.242	2.0.10.242	07-19-2016	7/19/2016 7:58:34 PM	15:58:34	2.0.10.147	7	NULL		336	scaleTrainingProc	The sourness of a lemon	ScaleTraining	15	2	7	NULL	NULL	NULL	NULL	NULL	NULL	NULL	NULL	NULL	NULL	NULL	NULL	NULL	NULL	NULL	NULL	NULL	NULL	NULL	NULL	NULL	NULL	NULL	NULL	NULL	NULL	NULL	NULL	NULL	NULL	NULL	NULL	NULL	NULL	NULL	NULL	NULL	NULL	NULL	NULL	NULL	NULL	NULL	NULL	NULL	NULL	NULL	NULL	NULL	NULL	NULL	NULL	NULL	NULL	NULL	NULL	NULL	NULL	NULL	NULL	NULL	NULL	NULL	NULL	NULL	NULL	NULL	NULL	NULL	NULL	NULL	NULL	NULL	NULL	NULL	NULL	NULL	NULL	NULL	NULL	NULL	NULL	NULL	NULL	NULL	NULL	NULL	NULL	NULL	NULL	NULL	NULL	NULL	NULL
TMA Blocker Split Nostril Olfactometer_Pilot 2	48	1	<?xml version="1.0"?>\n<Clock xmlns:dt="urn:schemas-microsoft-com:datatypes"><Description dt:dt="string">E-Prime Primary Realtime Clock</Description><StartTime><Timestamp dt:dt="int">0</Timestamp><DateUtc dt:dt="string">2016-07-19T19:58:34Z</DateUtc></StartTime><FrequencyChanges><FrequencyChange><Frequency dt:dt="r8">2793160000</Frequency><Timestamp dt:dt="r8">5.34838117109329E+15</Timestamp><Current dt:dt="r8">0</Current><DateUtc dt:dt="string">2016-07-19T19:58:34Z</DateUtc></FrequencyChange></FrequencyChanges></Clock>\n	TMA Blocker Split Nostril Olfactometer_Pilot 2-48-1	74.912	1.0.0.1473	1	0		-999999	12048	3506901	0	q	67703	3574604	690951554	2.0.10.242	2.0.10.242	07-19-2016	7/19/2016 7:58:34 PM	15:58:34	2.0.10.147	8	NULL		202	ScaleTrainingProc	The loudness of a conversation	ScaleTraining	7	2	8	NULL	NULL	NULL	NULL	NULL	NULL	NULL	NULL	NULL	NULL	NULL	NULL	NULL	NULL	NULL	NULL	NULL	NULL	NULL	NULL	NULL	NULL	NULL	NULL	NULL	NULL	NULL	NULL	NULL	NULL	NULL	NULL	NULL	NULL	NULL	NULL	NULL	NULL	NULL	NULL	NULL	NULL	NULL	NULL	NULL	NULL	NULL	NULL	NULL	NULL	NULL	NULL	NULL	NULL	NULL	NULL	NULL	NULL	NULL	NULL	NULL	NULL	NULL	NULL	NULL	NULL	NULL	NULL	NULL	NULL	NULL	NULL	NULL	NULL	NULL	NULL	NULL	NULL	NULL	NULL	NULL	NULL	NULL	NULL	NULL	NULL	NULL	NULL	NULL	NULL	NULL	NULL	NULL	NULL
TMA Blocker Split Nostril Olfactometer_Pilot 2	48	1	<?xml version="1.0"?>\n<Clock xmlns:dt="urn:schemas-microsoft-com:datatypes"><Description dt:dt="string">E-Prime Primary Realtime Clock</Description><StartTime><Timestamp dt:dt="int">0</Timestamp><DateUtc dt:dt="string">2016-07-19T19:58:34Z</DateUtc></StartTime><FrequencyChanges><FrequencyChange><Frequency dt:dt="r8">2793160000</Frequency><Timestamp dt:dt="r8">5.34838117109329E+15</Timestamp><Current dt:dt="r8">0</Current><DateUtc dt:dt="string">2016-07-19T19:58:34Z</DateUtc></FrequencyChange></FrequencyChanges></Clock>\n	TMA Blocker Split Nostril Olfactometer_Pilot 2-48-1	74.912	1.0.0.1473	1	0		-999999	12048	3506901	0	q	67703	3574604	690951554	2.0.10.242	2.0.10.242	07-19-2016	7/19/2016 7:58:34 PM	15:58:34	2.0.10.147	9	NULL		514	ScaleTrainingProc	The brightness of a dimly-lit room	ScaleTraining	11	2	9	NULL	NULL	NULL	NULL	NULL	NULL	NULL	NULL	NULL	NULL	NULL	NULL	NULL	NULL	NULL	NULL	NULL	NULL	NULL	NULL	NULL	NULL	NULL	NULL	NULL	NULL	NULL	NULL	NULL	NULL	NULL	NULL	NULL	NULL	NULL	NULL	NULL	NULL	NULL	NULL	NULL	NULL	NULL	NULL	NULL	NULL	NULL	NULL	NULL	NULL	NULL	NULL	NULL	NULL	NULL	NULL	NULL	NULL	NULL	NULL	NULL	NULL	NULL	NULL	NULL	NULL	NULL	NULL	NULL	NULL	NULL	NULL	NULL	NULL	NULL	NULL	NULL	NULL	NULL	NULL	NULL	NULL	NULL	NULL	NULL	NULL	NULL	NULL	NULL	NULL	NULL	NULL	NULL	NULL
TMA Blocker Split Nostril Olfactometer_Pilot 2	48	1	<?xml version="1.0"?>\n<Clock xmlns:dt="urn:schemas-microsoft-com:datatypes"><Description dt:dt="string">E-Prime Primary Realtime Clock</Description><StartTime><Timestamp dt:dt="int">0</Timestamp><DateUtc dt:dt="string">2016-07-19T19:58:34Z</DateUtc></StartTime><FrequencyChanges><FrequencyChange><Frequency dt:dt="r8">2793160000</Frequency><Timestamp dt:dt="r8">5.34838117109329E+15</Timestamp><Current dt:dt="r8">0</Current><DateUtc dt:dt="string">2016-07-19T19:58:34Z</DateUtc></FrequencyChange></FrequencyChanges></Clock>\n	TMA Blocker Split Nostril Olfactometer_Pilot 2-48-1	74.912	1.0.0.1473	1	0		-999999	12048	3506901	0	q	67703	3574604	690951554	2.0.10.242	2.0.10.242	07-19-2016	7/19/2016 7:58:34 PM	15:58:34	2.0.10.147	10	NULL		440	ScaleTrainingProc	The strength of a firm handshake	ScaleTraining	6	2	10	NULL	NULL	NULL	NULL	NULL	NULL	NULL	NULL	NULL	NULL	NULL	NULL	NULL	NULL	NULL	NULL	NULL	NULL	NULL	NULL	NULL	NULL	NULL	NULL	NULL	NULL	NULL	NULL	NULL	NULL	NULL	NULL	NULL	NULL	NULL	NULL	NULL	NULL	NULL	NULL	NULL	NULL	NULL	NULL	NULL	NULL	NULL	NULL	NULL	NULL	NULL	NULL	NULL	NULL	NULL	NULL	NULL	NULL	NULL	NULL	NULL	NULL	NULL	NULL	NULL	NULL	NULL	NULL	NULL	NULL	NULL	NULL	NULL	NULL	NULL	NULL	NULL	NULL	NULL	NULL	NULL	NULL	NULL	NULL	NULL	NULL	NULL	NULL	NULL	NULL	NULL	NULL	NULL	NULL
TMA Blocker Split Nostril Olfactometer_Pilot 2	48	1	<?xml version="1.0"?>\n<Clock xmlns:dt="urn:schemas-microsoft-com:datatypes"><Description dt:dt="string">E-Prime Primary Realtime Clock</Description><StartTime><Timestamp dt:dt="int">0</Timestamp><DateUtc dt:dt="string">2016-07-19T19:58:34Z</DateUtc></StartTime><FrequencyChanges><FrequencyChange><Frequency dt:dt="r8">2793160000</Frequency><Timestamp dt:dt="r8">5.34838117109329E+15</Timestamp><Current dt:dt="r8">0</Current><DateUtc dt:dt="string">2016-07-19T19:58:34Z</DateUtc></FrequencyChange></FrequencyChanges></Clock>\n	TMA Blocker Split Nostril Olfactometer_Pilot 2-48-1	74.912	1.0.0.1473	1	0		-999999	12048	3506901	0	q	67703	3574604	690951554	2.0.10.242	2.0.10.242	07-19-2016	7/19/2016 7:58:34 PM	15:58:34	2.0.10.147	11	NULL		410	ScaleTrainingProc	The strength of the odor (intensity) of a rose	ScaleTraining	13	2	11	NULL	NULL	NULL	NULL	NULL	NULL	NULL	NULL	NULL	NULL	NULL	NULL	NULL	NULL	NULL	NULL	NULL	NULL	NULL	NULL	NULL	NULL	NULL	NULL	NULL	NULL	NULL	NULL	NULL	NULL	NULL	NULL	NULL	NULL	NULL	NULL	NULL	NULL	NULL	NULL	NULL	NULL	NULL	NULL	NULL	NULL	NULL	NULL	NULL	NULL	NULL	NULL	NULL	NULL	NULL	NULL	NULL	NULL	NULL	NULL	NULL	NULL	NULL	NULL	NULL	NULL	NULL	NULL	NULL	NULL	NULL	NULL	NULL	NULL	NULL	NULL	NULL	NULL	NULL	NULL	NULL	NULL	NULL	NULL	NULL	NULL	NULL	NULL	NULL	NULL	NULL	NULL	NULL	NULL
TMA Blocker Split Nostril Olfactometer_Pilot 2	48	1	<?xml version="1.0"?>\n<Clock xmlns:dt="urn:schemas-microsoft-com:datatypes"><Description dt:dt="string">E-Prime Primary Realtime Clock</Description><StartTime><Timestamp dt:dt="int">0</Timestamp><DateUtc dt:dt="string">2016-07-19T19:58:34Z</DateUtc></StartTime><FrequencyChanges><FrequencyChange><Frequency dt:dt="r8">2793160000</Frequency><Timestamp dt:dt="r8">5.34838117109329E+15</Timestamp><Current dt:dt="r8">0</Current><DateUtc dt:dt="string">2016-07-19T19:58:34Z</DateUtc></FrequencyChange></FrequencyChanges></Clock>\n	TMA Blocker Split Nostril Olfactometer_Pilot 2-48-1	74.912	1.0.0.1473	1	0		-999999	12048	3506901	0	q	67703	3574604	690951554	2.0.10.242	2.0.10.242	07-19-2016	7/19/2016 7:58:34 PM	15:58:34	2.0.10.147	12	NULL		161	ScaleTrainingProc	The pain from biting your tongue	ScaleTraining	4	2	12	NULL	NULL	NULL	NULL	NULL	NULL	NULL	NULL	NULL	NULL	NULL	NULL	NULL	NULL	NULL	NULL	NULL	NULL	NULL	NULL	NULL	NULL	NULL	NULL	NULL	NULL	NULL	NULL	NULL	NULL	NULL	NULL	NULL	NULL	NULL	NULL	NULL	NULL	NULL	NULL	NULL	NULL	NULL	NULL	NULL	NULL	NULL	NULL	NULL	NULL	NULL	NULL	NULL	NULL	NULL	NULL	NULL	NULL	NULL	NULL	NULL	NULL	NULL	NULL	NULL	NULL	NULL	NULL	NULL	NULL	NULL	NULL	NULL	NULL	NULL	NULL	NULL	NULL	NULL	NULL	NULL	NULL	NULL	NULL	NULL	NULL	NULL	NULL	NULL	NULL	NULL	NULL	NULL	NULL
TMA Blocker Split Nostril Olfactometer_Pilot 2	48	1	<?xml version="1.0"?>\n<Clock xmlns:dt="urn:schemas-microsoft-com:datatypes"><Description dt:dt="string">E-Prime Primary Realtime Clock</Description><StartTime><Timestamp dt:dt="int">0</Timestamp><DateUtc dt:dt="string">2016-07-19T19:58:34Z</DateUtc></StartTime><FrequencyChanges><FrequencyChange><Frequency dt:dt="r8">2793160000</Frequency><Timestamp dt:dt="r8">5.34838117109329E+15</Timestamp><Current dt:dt="r8">0</Current><DateUtc dt:dt="string">2016-07-19T19:58:34Z</DateUtc></FrequencyChange></FrequencyChanges></Clock>\n	TMA Blocker Split Nostril Olfactometer_Pilot 2-48-1	74.912	1.0.0.1473	1	0		-999999	12048	3506901	0	q	67703	3574604	690951554	2.0.10.242	2.0.10.242	07-19-2016	7/19/2016 7:58:34 PM	15:58:34	2.0.10.147	13	NULL		81	ScaleTrainingProc	The loudest sound you have ever heard	ScaleTraining	2	2	13	NULL	NULL	NULL	NULL	NULL	NULL	NULL	NULL	NULL	NULL	NULL	NULL	NULL	NULL	NULL	NULL	NULL	NULL	NULL	NULL	NULL	NULL	NULL	NULL	NULL	NULL	NULL	NULL	NULL	NULL	NULL	NULL	NULL	NULL	NULL	NULL	NULL	NULL	NULL	NULL	NULL	NULL	NULL	NULL	NULL	NULL	NULL	NULL	NULL	NULL	NULL	NULL	NULL	NULL	NULL	NULL	NULL	NULL	NULL	NULL	NULL	NULL	NULL	NULL	NULL	NULL	NULL	NULL	NULL	NULL	NULL	NULL	NULL	NULL	NULL	NULL	NULL	NULL	NULL	NULL	NULL	NULL	NULL	NULL	NULL	NULL	NULL	NULL	NULL	NULL	NULL	NULL	NULL	NULL
TMA Blocker Split Nostril Olfactometer_Pilot 2	48	1	<?xml version="1.0"?>\n<Clock xmlns:dt="urn:schemas-microsoft-com:datatypes"><Description dt:dt="string">E-Prime Primary Realtime Clock</Description><StartTime><Timestamp dt:dt="int">0</Timestamp><DateUtc dt:dt="string">2016-07-19T19:58:34Z</DateUtc></StartTime><FrequencyChanges><FrequencyChange><Frequency dt:dt="r8">2793160000</Frequency><Timestamp dt:dt="r8">5.34838117109329E+15</Timestamp><Current dt:dt="r8">0</Current><DateUtc dt:dt="string">2016-07-19T19:58:34Z</DateUtc></FrequencyChange></FrequencyChanges></Clock>\n	TMA Blocker Split Nostril Olfactometer_Pilot 2-48-1	74.912	1.0.0.1473	1	0		-999999	12048	3506901	0	q	67703	3574604	690951554	2.0.10.242	2.0.10.242	07-19-2016	7/19/2016 7:58:34 PM	15:58:34	2.0.10.147	14	NULL		395	ScaleTrainingProc	The coolness from a peppermint candy	ScaleTraining	9	2	14	NULL	NULL	NULL	NULL	NULL	NULL	NULL	NULL	NULL	NULL	NULL	NULL	NULL	NULL	NULL	NULL	NULL	NULL	NULL	NULL	NULL	NULL	NULL	NULL	NULL	NULL	NULL	NULL	NULL	NULL	NULL	NULL	NULL	NULL	NULL	NULL	NULL	NULL	NULL	NULL	NULL	NULL	NULL	NULL	NULL	NULL	NULL	NULL	NULL	NULL	NULL	NULL	NULL	NULL	NULL	NULL	NULL	NULL	NULL	NULL	NULL	NULL	NULL	NULL	NULL	NULL	NULL	NULL	NULL	NULL	NULL	NULL	NULL	NULL	NULL	NULL	NULL	NULL	NULL	NULL	NULL	NULL	NULL	NULL	NULL	NULL	NULL	NULL	NULL	NULL	NULL	NULL	NULL	NULL
TMA Blocker Split Nostril Olfactometer_Pilot 2	48	1	<?xml version="1.0"?>\n<Clock xmlns:dt="urn:schemas-microsoft-com:datatypes"><Description dt:dt="string">E-Prime Primary Realtime Clock</Description><StartTime><Timestamp dt:dt="int">0</Timestamp><DateUtc dt:dt="string">2016-07-19T19:58:34Z</DateUtc></StartTime><FrequencyChanges><FrequencyChange><Frequency dt:dt="r8">2793160000</Frequency><Timestamp dt:dt="r8">5.34838117109329E+15</Timestamp><Current dt:dt="r8">0</Current><DateUtc dt:dt="string">2016-07-19T19:58:34Z</DateUtc></FrequencyChange></FrequencyChanges></Clock>\n	TMA Blocker Split Nostril Olfactometer_Pilot 2-48-1	74.912	1.0.0.1473	1	0		-999999	12048	3506901	0	q	67703	3574604	690951554	2.0.10.242	2.0.10.242	07-19-2016	7/19/2016 7:58:34 PM	15:58:34	2.0.10.147	15	NULL		209	ScaleTrainingProc	The strongest odor you have ever smelled	ScaleTraining	14	2	15	NULL	NULL	NULL	NULL	NULL	NULL	NULL	NULL	NULL	NULL	NULL	NULL	NULL	NULL	NULL	NULL	NULL	NULL	NULL	NULL	NULL	NULL	NULL	NULL	NULL	NULL	NULL	NULL	NULL	NULL	NULL	NULL	NULL	NULL	NULL	NULL	NULL	NULL	NULL	NULL	NULL	NULL	NULL	NULL	NULL	NULL	NULL	NULL	NULL	NULL	NULL	NULL	NULL	NULL	NULL	NULL	NULL	NULL	NULL	NULL	NULL	NULL	NULL	NULL	NULL	NULL	NULL	NULL	NULL	NULL	NULL	NULL	NULL	NULL	NULL	NULL	NULL	NULL	NULL	NULL	NULL	NULL	NULL	NULL	NULL	NULL	NULL	NULL	NULL	NULL	NULL	NULL	NULL	NULL
TMA Blocker Split Nostril Olfactometer_Pilot 2	48	1	<?xml version="1.0"?>\n<Clock xmlns:dt="urn:schemas-microsoft-com:datatypes"><Description dt:dt="string">E-Prime Primary Realtime Clock</Description><StartTime><Timestamp dt:dt="int">0</Timestamp><DateUtc dt:dt="string">2016-07-19T19:58:34Z</DateUtc></StartTime><FrequencyChanges><FrequencyChange><Frequency dt:dt="r8">2793160000</Frequency><Timestamp dt:dt="r8">5.34838117109329E+15</Timestamp><Current dt:dt="r8">0</Current><DateUtc dt:dt="string">2016-07-19T19:58:34Z</DateUtc></FrequencyChange></FrequencyChanges></Clock>\n	TMA Blocker Split Nostril Olfactometer_Pilot 2-48-1	74.912	1.0.0.1473	1	0		-999999	12048	3506901	0	q	67703	3574604	690951554	2.0.10.242	2.0.10.242	07-19-2016	7/19/2016 7:58:34 PM	15:58:34	2.0.10.147	16	NULL		NULL	SniffingInstructionsProc	NULL	SniffingInstructionsList	NULL	NULL	NULL	1	1	1	NULL	NULL	NULL	NULL	NULL	NULL	NULL	NULL	NULL	NULL	NULL	NULL	NULL	1	NULL	NULL		NULL	NULL	NULL	NULL	NULL	1	1	1	PrepareProc	NULL	NULL	NULL	NULL	NULL	NULL	NULL	NULL	NULL	NULL	NULL	NULL	NULL	NULL	NULL	NULL	NULL	Prepare	NULL	NULL	NULL	NULL	NULL	NULL	NULL	NULL	NULL	NULL	NULL	NULL	NULL	NULL	NULL	NULL	NULL	NULL	NULL	NULL	NULL	NULL	NULL	NULL	NULL	NULL	NULL	NULL	NULL	NULL	NULL	NULL	NULL	NULL	NULL	NULL	NULL	NULL	NULL	NULL	NULL	NULL	NULL	NULL	NULL	NULL	NULL
TMA Blocker Split Nostril Olfactometer_Pilot 2	48	1	<?xml version="1.0"?>\n<Clock xmlns:dt="urn:schemas-microsoft-com:datatypes"><Description dt:dt="string">E-Prime Primary Realtime Clock</Description><StartTime><Timestamp dt:dt="int">0</Timestamp><DateUtc dt:dt="string">2016-07-19T19:58:34Z</DateUtc></StartTime><FrequencyChanges><FrequencyChange><Frequency dt:dt="r8">2793160000</Frequency><Timestamp dt:dt="r8">5.34838117109329E+15</Timestamp><Current dt:dt="r8">0</Current><DateUtc dt:dt="string">2016-07-19T19:58:34Z</DateUtc></FrequencyChange></FrequencyChanges></Clock>\n	TMA Blocker Split Nostril Olfactometer_Pilot 2-48-1	74.912	1.0.0.1473	1	0		-999999	12048	3506901	0	q	67703	3574604	690951554	2.0.10.242	2.0.10.242	07-19-2016	7/19/2016 7:58:34 PM	15:58:34	2.0.10.147	17	GREEN	NULL	NULL	TestProcA	NULL	Train1	NULL	NULL	NULL	NULL	NULL	NULL	NULL	NULL	NULL	NULL	NULL	NULL	Yes	1	1	1	NULL	NULL	NULL	1	NULL	Fishy	Green	427	NULL	3	24	NULL	NULL	NULL	NULL	training	Strength of the Odor (How fishy is it?)	NULL	NULL	NULL	NULL	NULL	NULL	NULL	NULL	NULL	NULL	NULL	NULL	NULL	NULL	NULL	NULL	TrainList	1	1	1	NULL	NULL	NULL	NULL	NULL	NULL	NULL	NULL	NULL	1	NULL	NULL	NULL	NULL	NULL	NULL	Green	NULL	NULL	NULL	NULL	NULL	NULL	NULL	NULL	NULL	NULL	NULL	NULL	1	2	2	PrepareProc	Strength of the Odor (How fishy is it?)	Prepare	NULL	NULL	NULL	NULL	NULL	NULL	NULL	NULL	NULL
TMA Blocker Split Nostril Olfactometer_Pilot 2	48	1	<?xml version="1.0"?>\n<Clock xmlns:dt="urn:schemas-microsoft-com:datatypes"><Description dt:dt="string">E-Prime Primary Realtime Clock</Description><StartTime><Timestamp dt:dt="int">0</Timestamp><DateUtc dt:dt="string">2016-07-19T19:58:34Z</DateUtc></StartTime><FrequencyChanges><FrequencyChange><Frequency dt:dt="r8">2793160000</Frequency><Timestamp dt:dt="r8">5.34838117109329E+15</Timestamp><Current dt:dt="r8">0</Current><DateUtc dt:dt="string">2016-07-19T19:58:34Z</DateUtc></FrequencyChange></FrequencyChanges></Clock>\n	TMA Blocker Split Nostril Olfactometer_Pilot 2-48-1	74.912	1.0.0.1473	1	0		-999999	12048	3506901	0	q	67703	3574604	690951554	2.0.10.242	2.0.10.242	07-19-2016	7/19/2016 7:58:34 PM	15:58:34	2.0.10.147	17	GREEN	NULL	NULL	TestProcA	NULL	Train1	NULL	NULL	NULL	NULL	NULL	NULL	NULL	NULL	NULL	NULL	NULL	NULL	Yes	1	1	1	NULL	NULL	NULL	2	NULL	Green	Green	486	NULL	72	24	NULL	NULL	NULL	NULL	training	Strength of the Odor (How green is it?)	NULL	NULL	NULL	NULL	NULL	NULL	NULL	NULL	NULL	NULL	NULL	NULL	NULL	NULL	NULL	NULL	TrainList	2	1	2	NULL	NULL	NULL	NULL	NULL	NULL	NULL	NULL	NULL	1	NULL	NULL	NULL	NULL	NULL	NULL	Green	NULL	NULL	NULL	NULL	NULL	NULL	NULL	NULL	NULL	NULL	NULL	NULL	1	3	3	PrepareProc	Strength of the Odor (How green is it?)	Prepare	NULL	NULL	NULL	NULL	NULL	NULL	NULL	NULL	NULL
TMA Blocker Split Nostril Olfactometer_Pilot 2	48	1	<?xml version="1.0"?>\n<Clock xmlns:dt="urn:schemas-microsoft-com:datatypes"><Description dt:dt="string">E-Prime Primary Realtime Clock</Description><StartTime><Timestamp dt:dt="int">0</Timestamp><DateUtc dt:dt="string">2016-07-19T19:58:34Z</DateUtc></StartTime><FrequencyChanges><FrequencyChange><Frequency dt:dt="r8">2793160000</Frequency><Timestamp dt:dt="r8">5.34838117109329E+15</Timestamp><Current dt:dt="r8">0</Current><DateUtc dt:dt="string">2016-07-19T19:58:34Z</DateUtc></FrequencyChange></FrequencyChanges></Clock>\n	TMA Blocker Split Nostril Olfactometer_Pilot 2-48-1	74.912	1.0.0.1473	1	0		-999999	12048	3506901	0	q	67703	3574604	690951554	2.0.10.242	2.0.10.242	07-19-2016	7/19/2016 7:58:34 PM	15:58:34	2.0.10.147	17	GREEN	NULL	NULL	TestProcA	NULL	Train1	NULL	NULL	NULL	NULL	NULL	NULL	NULL	NULL	NULL	NULL	NULL	NULL	Yes	1	1	1	NULL	NULL	NULL	3	2	NULL	Green	484	NULL	3	24	Fishy	NULL	NULL	NULL	Quiz	How strong is the odor?	1	1	1	NULL	NULL	NULL	1	2	-999999	39	1080423	0	2	6122	1086545	NULL	QuizList	NULL	NULL	NULL	NULL	NULL	NULL	NULL	NULL	NULL	NULL	NULL	NULL	1	NULL	2	NULL	NULL	NULL	NULL	Green	NULL	NULL	NULL	NULL	NULL	NULL	NULL	NULL	NULL	NULL	NULL	NULL	1	4	4	PrepareProc	How strong is the odor?	Prepare	NULL	NULL	NULL	NULL	NULL	NULL	NULL	NULL	NULL
TMA Blocker Split Nostril Olfactometer_Pilot 2	48	1	<?xml version="1.0"?>\n<Clock xmlns:dt="urn:schemas-microsoft-com:datatypes"><Description dt:dt="string">E-Prime Primary Realtime Clock</Description><StartTime><Timestamp dt:dt="int">0</Timestamp><DateUtc dt:dt="string">2016-07-19T19:58:34Z</DateUtc></StartTime><FrequencyChanges><FrequencyChange><Frequency dt:dt="r8">2793160000</Frequency><Timestamp dt:dt="r8">5.34838117109329E+15</Timestamp><Current dt:dt="r8">0</Current><DateUtc dt:dt="string">2016-07-19T19:58:34Z</DateUtc></FrequencyChange></FrequencyChanges></Clock>\n	TMA Blocker Split Nostril Olfactometer_Pilot 2-48-1	74.912	1.0.0.1473	1	0		-999999	12048	3506901	0	q	67703	3574604	690951554	2.0.10.242	2.0.10.242	07-19-2016	7/19/2016 7:58:34 PM	15:58:34	2.0.10.147	17	GREEN	NULL	NULL	TestProcA	NULL	Train1	NULL	NULL	NULL	NULL	NULL	NULL	NULL	NULL	NULL	NULL	NULL	NULL	Yes	1	1	1	NULL	NULL	NULL	4	2	NULL	Green	501	NULL	66	9	Fishy	NULL	NULL	NULL	Quiz	How strong is the odor?	4	1	2	NULL	NULL	NULL	0	2	-999999	39	1132618	0	1	5830	1138448	NULL	QuizList	NULL	NULL	NULL	NULL	NULL	NULL	NULL	NULL	NULL	NULL	NULL	NULL	1	NULL	2	NULL	NULL	NULL	NULL	Green	NULL	NULL	NULL	NULL	NULL	NULL	NULL	NULL	NULL	NULL	NULL	NULL	1	5	5	PrepareProc	How strong is the odor?	Prepare	NULL	NULL	NULL	NULL	NULL	NULL	NULL	NULL	NULL
TMA Blocker Split Nostril Olfactometer_Pilot 2	48	1	<?xml version="1.0"?>\n<Clock xmlns:dt="urn:schemas-microsoft-com:datatypes"><Description dt:dt="string">E-Prime Primary Realtime Clock</Description><StartTime><Timestamp dt:dt="int">0</Timestamp><DateUtc dt:dt="string">2016-07-19T19:58:34Z</DateUtc></StartTime><FrequencyChanges><FrequencyChange><Frequency dt:dt="r8">2793160000</Frequency><Timestamp dt:dt="r8">5.34838117109329E+15</Timestamp><Current dt:dt="r8">0</Current><DateUtc dt:dt="string">2016-07-19T19:58:34Z</DateUtc></FrequencyChange></FrequencyChanges></Clock>\n	TMA Blocker Split Nostril Olfactometer_Pilot 2-48-1	74.912	1.0.0.1473	1	0		-999999	12048	3506901	0	q	67703	3574604	690951554	2.0.10.242	2.0.10.242	07-19-2016	7/19/2016 7:58:34 PM	15:58:34	2.0.10.147	17	GREEN	NULL	NULL	TestProcA	NULL	Train1	NULL	NULL	NULL	NULL	NULL	NULL	NULL	NULL	NULL	NULL	NULL	NULL	Yes	1	1	1	NULL	NULL	NULL	5	1	NULL	Green	430	NULL	66	48	Green	NULL	NULL	NULL	Quiz	How strong is the odor?	3	1	3	NULL	NULL	NULL	1	1	-999999	39	1185066	0	1	4252	1189318	NULL	QuizList	NULL	NULL	NULL	NULL	NULL	NULL	NULL	NULL	NULL	NULL	NULL	NULL	1	NULL	1	NULL	NULL	NULL	NULL	Green	NULL	NULL	NULL	NULL	NULL	NULL	NULL	NULL	NULL	NULL	NULL	NULL	1	6	6	PrepareProc	How strong is the odor?	Prepare	NULL	NULL	NULL	NULL	NULL	NULL	NULL	NULL	NULL
TMA Blocker Split Nostril Olfactometer_Pilot 2	48	1	<?xml version="1.0"?>\n<Clock xmlns:dt="urn:schemas-microsoft-com:datatypes"><Description dt:dt="string">E-Prime Primary Realtime Clock</Description><StartTime><Timestamp dt:dt="int">0</Timestamp><DateUtc dt:dt="string">2016-07-19T19:58:34Z</DateUtc></StartTime><FrequencyChanges><FrequencyChange><Frequency dt:dt="r8">2793160000</Frequency><Timestamp dt:dt="r8">5.34838117109329E+15</Timestamp><Current dt:dt="r8">0</Current><DateUtc dt:dt="string">2016-07-19T19:58:34Z</DateUtc></FrequencyChange></FrequencyChanges></Clock>\n	TMA Blocker Split Nostril Olfactometer_Pilot 2-48-1	74.912	1.0.0.1473	1	0		-999999	12048	3506901	0	q	67703	3574604	690951554	2.0.10.242	2.0.10.242	07-19-2016	7/19/2016 7:58:34 PM	15:58:34	2.0.10.147	17	GREEN	NULL	NULL	TestProcA	NULL	Train1	NULL	NULL	NULL	NULL	NULL	NULL	NULL	NULL	NULL	NULL	NULL	NULL	Yes	1	1	1	NULL	NULL	NULL	6	1	NULL	Green	451	NULL	72	24	Green	NULL	NULL	NULL	Quiz	How strong is the odor?	2	1	4	NULL	NULL	NULL	0	1	-999999	39	1236834	0	2	6186	1243020	NULL	QuizList	NULL	NULL	NULL	NULL	NULL	NULL	NULL	NULL	NULL	NULL	NULL	NULL	1	NULL	1	NULL	NULL	NULL	NULL	Green	NULL	NULL	NULL	NULL	NULL	NULL	NULL	NULL	NULL	NULL	NULL	NULL	1	7	7	PrepareProc	How strong is the odor?	Prepare	NULL	NULL	NULL	NULL	NULL	NULL	NULL	NULL	NULL
TMA Blocker Split Nostril Olfactometer_Pilot 2	48	1	<?xml version="1.0"?>\n<Clock xmlns:dt="urn:schemas-microsoft-com:datatypes"><Description dt:dt="string">E-Prime Primary Realtime Clock</Description><StartTime><Timestamp dt:dt="int">0</Timestamp><DateUtc dt:dt="string">2016-07-19T19:58:34Z</DateUtc></StartTime><FrequencyChanges><FrequencyChange><Frequency dt:dt="r8">2793160000</Frequency><Timestamp dt:dt="r8">5.34838117109329E+15</Timestamp><Current dt:dt="r8">0</Current><DateUtc dt:dt="string">2016-07-19T19:58:34Z</DateUtc></FrequencyChange></FrequencyChanges></Clock>\n	TMA Blocker Split Nostril Olfactometer_Pilot 2-48-1	74.912	1.0.0.1473	1	0		-999999	12048	3506901	0	q	67703	3574604	690951554	2.0.10.242	2.0.10.242	07-19-2016	7/19/2016 7:58:34 PM	15:58:34	2.0.10.147	18	GREEN	NULL	NULL	TestProcA	NULL	Train1	NULL	NULL	NULL	NULL	NULL	NULL	NULL	NULL	NULL	NULL	NULL	NULL	Yes	1	2	2	NULL	NULL	NULL	1	NULL	Fishy	Green	479	NULL	3	24	NULL	NULL	NULL	NULL	training	Strength of the Odor (How fishy is it?)	NULL	NULL	NULL	NULL	NULL	NULL	NULL	NULL	NULL	NULL	NULL	NULL	NULL	NULL	NULL	NULL	TrainList	1	2	3	NULL	NULL	NULL	NULL	NULL	NULL	NULL	NULL	NULL	1	NULL	NULL	NULL	NULL	NULL	NULL	Green	NULL	NULL	NULL	NULL	NULL	NULL	NULL	NULL	NULL	NULL	NULL	NULL	1	8	8	PrepareProc	Strength of the Odor (How fishy is it?)	Prepare	NULL	NULL	NULL	NULL	NULL	NULL	NULL	NULL	NULL
TMA Blocker Split Nostril Olfactometer_Pilot 2	48	1	<?xml version="1.0"?>\n<Clock xmlns:dt="urn:schemas-microsoft-com:datatypes"><Description dt:dt="string">E-Prime Primary Realtime Clock</Description><StartTime><Timestamp dt:dt="int">0</Timestamp><DateUtc dt:dt="string">2016-07-19T19:58:34Z</DateUtc></StartTime><FrequencyChanges><FrequencyChange><Frequency dt:dt="r8">2793160000</Frequency><Timestamp dt:dt="r8">5.34838117109329E+15</Timestamp><Current dt:dt="r8">0</Current><DateUtc dt:dt="string">2016-07-19T19:58:34Z</DateUtc></FrequencyChange></FrequencyChanges></Clock>\n	TMA Blocker Split Nostril Olfactometer_Pilot 2-48-1	74.912	1.0.0.1473	1	0		-999999	12048	3506901	0	q	67703	3574604	690951554	2.0.10.242	2.0.10.242	07-19-2016	7/19/2016 7:58:34 PM	15:58:34	2.0.10.147	18	GREEN	NULL	NULL	TestProcA	NULL	Train1	NULL	NULL	NULL	NULL	NULL	NULL	NULL	NULL	NULL	NULL	NULL	NULL	Yes	1	2	2	NULL	NULL	NULL	2	NULL	Green	Green	447	NULL	72	24	NULL	NULL	NULL	NULL	training	Strength of the Odor (How green is it?)	NULL	NULL	NULL	NULL	NULL	NULL	NULL	NULL	NULL	NULL	NULL	NULL	NULL	NULL	NULL	NULL	TrainList	2	2	4	NULL	NULL	NULL	NULL	NULL	NULL	NULL	NULL	NULL	1	NULL	NULL	NULL	NULL	NULL	NULL	Green	NULL	NULL	NULL	NULL	NULL	NULL	NULL	NULL	NULL	NULL	NULL	NULL	1	9	9	PrepareProc	Strength of the Odor (How green is it?)	Prepare	NULL	NULL	NULL	NULL	NULL	NULL	NULL	NULL	NULL
TMA Blocker Split Nostril Olfactometer_Pilot 2	48	1	<?xml version="1.0"?>\n<Clock xmlns:dt="urn:schemas-microsoft-com:datatypes"><Description dt:dt="string">E-Prime Primary Realtime Clock</Description><StartTime><Timestamp dt:dt="int">0</Timestamp><DateUtc dt:dt="string">2016-07-19T19:58:34Z</DateUtc></StartTime><FrequencyChanges><FrequencyChange><Frequency dt:dt="r8">2793160000</Frequency><Timestamp dt:dt="r8">5.34838117109329E+15</Timestamp><Current dt:dt="r8">0</Current><DateUtc dt:dt="string">2016-07-19T19:58:34Z</DateUtc></FrequencyChange></FrequencyChanges></Clock>\n	TMA Blocker Split Nostril Olfactometer_Pilot 2-48-1	74.912	1.0.0.1473	1	0		-999999	12048	3506901	0	q	67703	3574604	690951554	2.0.10.242	2.0.10.242	07-19-2016	7/19/2016 7:58:34 PM	15:58:34	2.0.10.147	18	GREEN	NULL	NULL	TestProcA	NULL	Train1	NULL	NULL	NULL	NULL	NULL	NULL	NULL	NULL	NULL	NULL	NULL	NULL	Yes	1	2	2	NULL	NULL	NULL	3	2	NULL	Green	499	NULL	3	24	Fishy	NULL	NULL	NULL	Quiz	How strong is the odor?	1	2	5	NULL	NULL	NULL	0	2	-999999	39	1388466	0	1	4206	1392672	NULL	QuizList	NULL	NULL	NULL	NULL	NULL	NULL	NULL	NULL	NULL	NULL	NULL	NULL	1	NULL	2	NULL	NULL	NULL	NULL	Green	NULL	NULL	NULL	NULL	NULL	NULL	NULL	NULL	NULL	NULL	NULL	NULL	1	10	10	PrepareProc	How strong is the odor?	Prepare	NULL	NULL	NULL	NULL	NULL	NULL	NULL	NULL	NULL
TMA Blocker Split Nostril Olfactometer_Pilot 2	48	1	<?xml version="1.0"?>\n<Clock xmlns:dt="urn:schemas-microsoft-com:datatypes"><Description dt:dt="string">E-Prime Primary Realtime Clock</Description><StartTime><Timestamp dt:dt="int">0</Timestamp><DateUtc dt:dt="string">2016-07-19T19:58:34Z</DateUtc></StartTime><FrequencyChanges><FrequencyChange><Frequency dt:dt="r8">2793160000</Frequency><Timestamp dt:dt="r8">5.34838117109329E+15</Timestamp><Current dt:dt="r8">0</Current><DateUtc dt:dt="string">2016-07-19T19:58:34Z</DateUtc></FrequencyChange></FrequencyChanges></Clock>\n	TMA Blocker Split Nostril Olfactometer_Pilot 2-48-1	74.912	1.0.0.1473	1	0		-999999	12048	3506901	0	q	67703	3574604	690951554	2.0.10.242	2.0.10.242	07-19-2016	7/19/2016 7:58:34 PM	15:58:34	2.0.10.147	18	GREEN	NULL	NULL	TestProcA	NULL	Train1	NULL	NULL	NULL	NULL	NULL	NULL	NULL	NULL	NULL	NULL	NULL	NULL	Yes	1	2	2	NULL	NULL	NULL	4	1	NULL	Green	519	NULL	72	24	Green	NULL	NULL	NULL	Quiz	How strong is the odor?	2	2	6	NULL	NULL	NULL	0	1	-999999	39	1442450	0	2	10212	1452662	NULL	QuizList	NULL	NULL	NULL	NULL	NULL	NULL	NULL	NULL	NULL	NULL	NULL	NULL	1	NULL	1	NULL	NULL	NULL	NULL	Green	NULL	NULL	NULL	NULL	NULL	NULL	NULL	NULL	NULL	NULL	NULL	NULL	1	11	11	PrepareProc	How strong is the odor?	Prepare	NULL	NULL	NULL	NULL	NULL	NULL	NULL	NULL	NULL
TMA Blocker Split Nostril Olfactometer_Pilot 2	48	1	<?xml version="1.0"?>\n<Clock xmlns:dt="urn:schemas-microsoft-com:datatypes"><Description dt:dt="string">E-Prime Primary Realtime Clock</Description><StartTime><Timestamp dt:dt="int">0</Timestamp><DateUtc dt:dt="string">2016-07-19T19:58:34Z</DateUtc></StartTime><FrequencyChanges><FrequencyChange><Frequency dt:dt="r8">2793160000</Frequency><Timestamp dt:dt="r8">5.34838117109329E+15</Timestamp><Current dt:dt="r8">0</Current><DateUtc dt:dt="string">2016-07-19T19:58:34Z</DateUtc></FrequencyChange></FrequencyChanges></Clock>\n	TMA Blocker Split Nostril Olfactometer_Pilot 2-48-1	74.912	1.0.0.1473	1	0		-999999	12048	3506901	0	q	67703	3574604	690951554	2.0.10.242	2.0.10.242	07-19-2016	7/19/2016 7:58:34 PM	15:58:34	2.0.10.147	18	GREEN	NULL	NULL	TestProcA	NULL	Train1	NULL	NULL	NULL	NULL	NULL	NULL	NULL	NULL	NULL	NULL	NULL	NULL	Yes	1	2	2	NULL	NULL	NULL	5	1	NULL	Green	521	NULL	66	48	Green	NULL	NULL	NULL	Quiz	How strong is the odor?	3	2	7	NULL	NULL	NULL	1	1	-999999	39	1499344	0	1	6780	1506124	NULL	QuizList	NULL	NULL	NULL	NULL	NULL	NULL	NULL	NULL	NULL	NULL	NULL	NULL	1	NULL	1	NULL	NULL	NULL	NULL	Green	NULL	NULL	NULL	NULL	NULL	NULL	NULL	NULL	NULL	NULL	NULL	NULL	1	12	12	PrepareProc	How strong is the odor?	Prepare	NULL	NULL	NULL	NULL	NULL	NULL	NULL	NULL	NULL
TMA Blocker Split Nostril Olfactometer_Pilot 2	48	1	<?xml version="1.0"?>\n<Clock xmlns:dt="urn:schemas-microsoft-com:datatypes"><Description dt:dt="string">E-Prime Primary Realtime Clock</Description><StartTime><Timestamp dt:dt="int">0</Timestamp><DateUtc dt:dt="string">2016-07-19T19:58:34Z</DateUtc></StartTime><FrequencyChanges><FrequencyChange><Frequency dt:dt="r8">2793160000</Frequency><Timestamp dt:dt="r8">5.34838117109329E+15</Timestamp><Current dt:dt="r8">0</Current><DateUtc dt:dt="string">2016-07-19T19:58:34Z</DateUtc></FrequencyChange></FrequencyChanges></Clock>\n	TMA Blocker Split Nostril Olfactometer_Pilot 2-48-1	74.912	1.0.0.1473	1	0		-999999	12048	3506901	0	q	67703	3574604	690951554	2.0.10.242	2.0.10.242	07-19-2016	7/19/2016 7:58:34 PM	15:58:34	2.0.10.147	18	GREEN	NULL	NULL	TestProcA	NULL	Train1	NULL	NULL	NULL	NULL	NULL	NULL	NULL	NULL	NULL	NULL	NULL	NULL	Yes	1	2	2	NULL	NULL	NULL	6	2	NULL	Green	434	NULL	66	9	Fishy	NULL	NULL	NULL	Quiz	How strong is the odor?	4	2	8	NULL	NULL	NULL	1	2	-999999	39	1552433	0	2	4578	1557011	NULL	QuizList	NULL	NULL	NULL	NULL	NULL	NULL	NULL	NULL	NULL	NULL	NULL	NULL	1	NULL	2	NULL	NULL	NULL	NULL	Green	NULL	NULL	NULL	NULL	NULL	NULL	NULL	NULL	NULL	NULL	NULL	NULL	1	13	13	PrepareProc	How strong is the odor?	Prepare	NULL	NULL	NULL	NULL	NULL	NULL	NULL	NULL	NULL
TMA Blocker Split Nostril Olfactometer_Pilot 2	48	1	<?xml version="1.0"?>\n<Clock xmlns:dt="urn:schemas-microsoft-com:datatypes"><Description dt:dt="string">E-Prime Primary Realtime Clock</Description><StartTime><Timestamp dt:dt="int">0</Timestamp><DateUtc dt:dt="string">2016-07-19T19:58:34Z</DateUtc></StartTime><FrequencyChanges><FrequencyChange><Frequency dt:dt="r8">2793160000</Frequency><Timestamp dt:dt="r8">5.34838117109329E+15</Timestamp><Current dt:dt="r8">0</Current><DateUtc dt:dt="string">2016-07-19T19:58:34Z</DateUtc></FrequencyChange></FrequencyChanges></Clock>\n	TMA Blocker Split Nostril Olfactometer_Pilot 2-48-1	74.912	1.0.0.1473	1	0		-999999	12048	3506901	0	q	67703	3574604	690951554	2.0.10.242	2.0.10.242	07-19-2016	7/19/2016 7:58:34 PM	15:58:34	2.0.10.147	19	GREEN	NULL	NULL	BlockProcA	NULL	Test1	NULL	NULL	NULL	NULL	NULL	NULL	1	1	1	NULL	NULL	NULL	No	NULL	NULL	NULL	NULL	NULL	NULL	1	NULL	NULL	NULL	NULL	Blank	66	33	NULL	NULL	NULL	NULL	TrialProc	NULL	NULL	NULL	NULL	NULL	NULL	NULL	NULL	NULL	NULL	NULL	NULL	NULL	NULL	NULL	NULL	TMA+Nonenol	TrialList	NULL	NULL	NULL	NULL	NULL	NULL	6	1	1	NULL	NULL	NULL	1	NULL	NULL	NULL	NULL	NULL	NULL	NULL	NULL	NULL	NULL	NULL	NULL	NULL	NULL	NULL	NULL	NULL	NULL	NULL	1	14	14	PrepareProc	NULL	Prepare	NULL	NULL	NULL	NULL	NULL	NULL	NULL	NULL	NULL
TMA Blocker Split Nostril Olfactometer_Pilot 2	48	1	<?xml version="1.0"?>\n<Clock xmlns:dt="urn:schemas-microsoft-com:datatypes"><Description dt:dt="string">E-Prime Primary Realtime Clock</Description><StartTime><Timestamp dt:dt="int">0</Timestamp><DateUtc dt:dt="string">2016-07-19T19:58:34Z</DateUtc></StartTime><FrequencyChanges><FrequencyChange><Frequency dt:dt="r8">2793160000</Frequency><Timestamp dt:dt="r8">5.34838117109329E+15</Timestamp><Current dt:dt="r8">0</Current><DateUtc dt:dt="string">2016-07-19T19:58:34Z</DateUtc></FrequencyChange></FrequencyChanges></Clock>\n	TMA Blocker Split Nostril Olfactometer_Pilot 2-48-1	74.912	1.0.0.1473	1	0		-999999	12048	3506901	0	q	67703	3574604	690951554	2.0.10.242	2.0.10.242	07-19-2016	7/19/2016 7:58:34 PM	15:58:34	2.0.10.147	19	GREEN	NULL	NULL	BlockProcA	NULL	Test1	NULL	NULL	NULL	NULL	NULL	NULL	1	1	1	NULL	NULL	NULL	No	NULL	NULL	NULL	NULL	NULL	NULL	1	NULL	NULL	NULL	NULL	Blank	66	33	NULL	NULL	NULL	NULL	TrialProc	NULL	NULL	NULL	NULL	NULL	NULL	NULL	NULL	NULL	NULL	NULL	NULL	NULL	NULL	NULL	NULL	TMA+Nonenol	TrialList	NULL	NULL	NULL	NULL	NULL	NULL	6	1	1	NULL	NULL	NULL	2	NULL	NULL	1	1	1	NULL	Green	467	545	NULL	NULL	NULL	NULL	NULL	NULL	NULL	NULL	NULL	1	NULL	NULL	NULL	ExperimentProc	How intense is the odor?	Experiment	NULL	NULL	NULL	NULL	NULL	NULL	NULL	NULL	?
TMA Blocker Split Nostril Olfactometer_Pilot 2	48	1	<?xml version="1.0"?>\n<Clock xmlns:dt="urn:schemas-microsoft-com:datatypes"><Description dt:dt="string">E-Prime Primary Realtime Clock</Description><StartTime><Timestamp dt:dt="int">0</Timestamp><DateUtc dt:dt="string">2016-07-19T19:58:34Z</DateUtc></StartTime><FrequencyChanges><FrequencyChange><Frequency dt:dt="r8">2793160000</Frequency><Timestamp dt:dt="r8">5.34838117109329E+15</Timestamp><Current dt:dt="r8">0</Current><DateUtc dt:dt="string">2016-07-19T19:58:34Z</DateUtc></FrequencyChange></FrequencyChanges></Clock>\n	TMA Blocker Split Nostril Olfactometer_Pilot 2-48-1	74.912	1.0.0.1473	1	0		-999999	12048	3506901	0	q	67703	3574604	690951554	2.0.10.242	2.0.10.242	07-19-2016	7/19/2016 7:58:34 PM	15:58:34	2.0.10.147	19	GREEN	NULL	NULL	BlockProcA	NULL	Test1	NULL	NULL	NULL	NULL	NULL	NULL	1	1	1	NULL	NULL	NULL	No	NULL	NULL	NULL	NULL	NULL	NULL	1	NULL	NULL	NULL	NULL	Blank	66	33	NULL	NULL	NULL	NULL	TrialProc	NULL	NULL	NULL	NULL	NULL	NULL	NULL	NULL	NULL	NULL	NULL	NULL	NULL	NULL	NULL	NULL	TMA+Nonenol	TrialList	NULL	NULL	NULL	NULL	NULL	NULL	6	1	1	NULL	NULL	NULL	3	NULL	1	NULL	NULL	NULL	NULL	NULL	NULL	NULL	0	1	-999999	13	1680198	0	2	1498	1681696	NULL	NULL	NULL	NULL	SongTrial	NULL	SoundList	NULL	NULL	13	1	1	NULL	NULL	NULL	NULL
TMA Blocker Split Nostril Olfactometer_Pilot 2	48	1	<?xml version="1.0"?>\n<Clock xmlns:dt="urn:schemas-microsoft-com:datatypes"><Description dt:dt="string">E-Prime Primary Realtime Clock</Description><StartTime><Timestamp dt:dt="int">0</Timestamp><DateUtc dt:dt="string">2016-07-19T19:58:34Z</DateUtc></StartTime><FrequencyChanges><FrequencyChange><Frequency dt:dt="r8">2793160000</Frequency><Timestamp dt:dt="r8">5.34838117109329E+15</Timestamp><Current dt:dt="r8">0</Current><DateUtc dt:dt="string">2016-07-19T19:58:34Z</DateUtc></FrequencyChange></FrequencyChanges></Clock>\n	TMA Blocker Split Nostril Olfactometer_Pilot 2-48-1	74.912	1.0.0.1473	1	0		-999999	12048	3506901	0	q	67703	3574604	690951554	2.0.10.242	2.0.10.242	07-19-2016	7/19/2016 7:58:34 PM	15:58:34	2.0.10.147	19	GREEN	NULL	NULL	BlockProcA	NULL	Test1	NULL	NULL	NULL	NULL	NULL	NULL	1	1	1	NULL	NULL	NULL	No	NULL	NULL	NULL	NULL	NULL	NULL	2	NULL	NULL	NULL	NULL	Nonenol	72	9	NULL	NULL	NULL	NULL	TrialProc	NULL	NULL	NULL	NULL	NULL	NULL	NULL	NULL	NULL	NULL	NULL	NULL	NULL	NULL	NULL	NULL	TMA	TrialList	NULL	NULL	NULL	NULL	NULL	NULL	8	1	2	NULL	NULL	NULL	1	NULL	NULL	NULL	NULL	NULL	NULL	NULL	NULL	NULL	NULL	NULL	NULL	NULL	NULL	NULL	NULL	NULL	NULL	NULL	1	15	15	PrepareProc	NULL	Prepare	NULL	NULL	NULL	NULL	NULL	NULL	NULL	NULL	NULL
TMA Blocker Split Nostril Olfactometer_Pilot 2	48	1	<?xml version="1.0"?>\n<Clock xmlns:dt="urn:schemas-microsoft-com:datatypes"><Description dt:dt="string">E-Prime Primary Realtime Clock</Description><StartTime><Timestamp dt:dt="int">0</Timestamp><DateUtc dt:dt="string">2016-07-19T19:58:34Z</DateUtc></StartTime><FrequencyChanges><FrequencyChange><Frequency dt:dt="r8">2793160000</Frequency><Timestamp dt:dt="r8">5.34838117109329E+15</Timestamp><Current dt:dt="r8">0</Current><DateUtc dt:dt="string">2016-07-19T19:58:34Z</DateUtc></FrequencyChange></FrequencyChanges></Clock>\n	TMA Blocker Split Nostril Olfactometer_Pilot 2-48-1	74.912	1.0.0.1473	1	0		-999999	12048	3506901	0	q	67703	3574604	690951554	2.0.10.242	2.0.10.242	07-19-2016	7/19/2016 7:58:34 PM	15:58:34	2.0.10.147	19	GREEN	NULL	NULL	BlockProcA	NULL	Test1	NULL	NULL	NULL	NULL	NULL	NULL	1	1	1	NULL	NULL	NULL	No	NULL	NULL	NULL	NULL	NULL	NULL	2	NULL	NULL	NULL	NULL	Nonenol	72	9	NULL	NULL	NULL	NULL	TrialProc	NULL	NULL	NULL	NULL	NULL	NULL	NULL	NULL	NULL	NULL	NULL	NULL	NULL	NULL	NULL	NULL	TMA	TrialList	NULL	NULL	NULL	NULL	NULL	NULL	8	1	2	NULL	NULL	NULL	2	NULL	NULL	1	2	2	NULL	Green	489	433	NULL	NULL	NULL	NULL	NULL	NULL	NULL	NULL	NULL	1	NULL	NULL	NULL	ExperimentProc	How intense is the odor?	Experiment	NULL	NULL	NULL	NULL	NULL	NULL	NULL	NULL	?
TMA Blocker Split Nostril Olfactometer_Pilot 2	48	1	<?xml version="1.0"?>\n<Clock xmlns:dt="urn:schemas-microsoft-com:datatypes"><Description dt:dt="string">E-Prime Primary Realtime Clock</Description><StartTime><Timestamp dt:dt="int">0</Timestamp><DateUtc dt:dt="string">2016-07-19T19:58:34Z</DateUtc></StartTime><FrequencyChanges><FrequencyChange><Frequency dt:dt="r8">2793160000</Frequency><Timestamp dt:dt="r8">5.34838117109329E+15</Timestamp><Current dt:dt="r8">0</Current><DateUtc dt:dt="string">2016-07-19T19:58:34Z</DateUtc></FrequencyChange></FrequencyChanges></Clock>\n	TMA Blocker Split Nostril Olfactometer_Pilot 2-48-1	74.912	1.0.0.1473	1	0		-999999	12048	3506901	0	q	67703	3574604	690951554	2.0.10.242	2.0.10.242	07-19-2016	7/19/2016 7:58:34 PM	15:58:34	2.0.10.147	19	GREEN	NULL	NULL	BlockProcA	NULL	Test1	NULL	NULL	NULL	NULL	NULL	NULL	1	1	1	NULL	NULL	NULL	No	NULL	NULL	NULL	NULL	NULL	NULL	2	NULL	NULL	NULL	NULL	Nonenol	72	9	NULL	NULL	NULL	NULL	TrialProc	NULL	NULL	NULL	NULL	NULL	NULL	NULL	NULL	NULL	NULL	NULL	NULL	NULL	NULL	NULL	NULL	TMA	TrialList	NULL	NULL	NULL	NULL	NULL	NULL	8	1	2	NULL	NULL	NULL	3	NULL	2	NULL	NULL	NULL	NULL	NULL	NULL	NULL	1	2	-999999	13	1723943	0	2	967	1724910	NULL	NULL	NULL	NULL	SongTrial	NULL	SoundList	NULL	NULL	11	1	2	NULL	NULL	NULL	NULL
TMA Blocker Split Nostril Olfactometer_Pilot 2	48	1	<?xml version="1.0"?>\n<Clock xmlns:dt="urn:schemas-microsoft-com:datatypes"><Description dt:dt="string">E-Prime Primary Realtime Clock</Description><StartTime><Timestamp dt:dt="int">0</Timestamp><DateUtc dt:dt="string">2016-07-19T19:58:34Z</DateUtc></StartTime><FrequencyChanges><FrequencyChange><Frequency dt:dt="r8">2793160000</Frequency><Timestamp dt:dt="r8">5.34838117109329E+15</Timestamp><Current dt:dt="r8">0</Current><DateUtc dt:dt="string">2016-07-19T19:58:34Z</DateUtc></FrequencyChange></FrequencyChanges></Clock>\n	TMA Blocker Split Nostril Olfactometer_Pilot 2-48-1	74.912	1.0.0.1473	1	0		-999999	12048	3506901	0	q	67703	3574604	690951554	2.0.10.242	2.0.10.242	07-19-2016	7/19/2016 7:58:34 PM	15:58:34	2.0.10.147	19	GREEN	NULL	NULL	BlockProcA	NULL	Test1	NULL	NULL	NULL	NULL	NULL	NULL	1	1	1	NULL	NULL	NULL	No	NULL	NULL	NULL	NULL	NULL	NULL	3	NULL	NULL	NULL	NULL	Nonenol	72	24	NULL	NULL	NULL	NULL	TrialProc	NULL	NULL	NULL	NULL	NULL	NULL	NULL	NULL	NULL	NULL	NULL	NULL	NULL	NULL	NULL	NULL	Blank	TrialList	NULL	NULL	NULL	NULL	NULL	NULL	3	1	3	NULL	NULL	NULL	1	NULL	NULL	NULL	NULL	NULL	NULL	NULL	NULL	NULL	NULL	NULL	NULL	NULL	NULL	NULL	NULL	NULL	NULL	NULL	1	16	16	PrepareProc	NULL	Prepare	NULL	NULL	NULL	NULL	NULL	NULL	NULL	NULL	NULL
TMA Blocker Split Nostril Olfactometer_Pilot 2	48	1	<?xml version="1.0"?>\n<Clock xmlns:dt="urn:schemas-microsoft-com:datatypes"><Description dt:dt="string">E-Prime Primary Realtime Clock</Description><StartTime><Timestamp dt:dt="int">0</Timestamp><DateUtc dt:dt="string">2016-07-19T19:58:34Z</DateUtc></StartTime><FrequencyChanges><FrequencyChange><Frequency dt:dt="r8">2793160000</Frequency><Timestamp dt:dt="r8">5.34838117109329E+15</Timestamp><Current dt:dt="r8">0</Current><DateUtc dt:dt="string">2016-07-19T19:58:34Z</DateUtc></FrequencyChange></FrequencyChanges></Clock>\n	TMA Blocker Split Nostril Olfactometer_Pilot 2-48-1	74.912	1.0.0.1473	1	0		-999999	12048	3506901	0	q	67703	3574604	690951554	2.0.10.242	2.0.10.242	07-19-2016	7/19/2016 7:58:34 PM	15:58:34	2.0.10.147	19	GREEN	NULL	NULL	BlockProcA	NULL	Test1	NULL	NULL	NULL	NULL	NULL	NULL	1	1	1	NULL	NULL	NULL	No	NULL	NULL	NULL	NULL	NULL	NULL	3	NULL	NULL	NULL	NULL	Nonenol	72	24	NULL	NULL	NULL	NULL	TrialProc	NULL	NULL	NULL	NULL	NULL	NULL	NULL	NULL	NULL	NULL	NULL	NULL	NULL	NULL	NULL	NULL	Blank	TrialList	NULL	NULL	NULL	NULL	NULL	NULL	3	1	3	NULL	NULL	NULL	2	NULL	NULL	1	3	3	NULL	Green	529	387	NULL	NULL	NULL	NULL	NULL	NULL	NULL	NULL	NULL	1	NULL	NULL	NULL	ExperimentProc	How intense is the odor?	Experiment	NULL	NULL	NULL	NULL	NULL	NULL	NULL	NULL	?
TMA Blocker Split Nostril Olfactometer_Pilot 2	48	1	<?xml version="1.0"?>\n<Clock xmlns:dt="urn:schemas-microsoft-com:datatypes"><Description dt:dt="string">E-Prime Primary Realtime Clock</Description><StartTime><Timestamp dt:dt="int">0</Timestamp><DateUtc dt:dt="string">2016-07-19T19:58:34Z</DateUtc></StartTime><FrequencyChanges><FrequencyChange><Frequency dt:dt="r8">2793160000</Frequency><Timestamp dt:dt="r8">5.34838117109329E+15</Timestamp><Current dt:dt="r8">0</Current><DateUtc dt:dt="string">2016-07-19T19:58:34Z</DateUtc></FrequencyChange></FrequencyChanges></Clock>\n	TMA Blocker Split Nostril Olfactometer_Pilot 2-48-1	74.912	1.0.0.1473	1	0		-999999	12048	3506901	0	q	67703	3574604	690951554	2.0.10.242	2.0.10.242	07-19-2016	7/19/2016 7:58:34 PM	15:58:34	2.0.10.147	19	GREEN	NULL	NULL	BlockProcA	NULL	Test1	NULL	NULL	NULL	NULL	NULL	NULL	1	1	1	NULL	NULL	NULL	No	NULL	NULL	NULL	NULL	NULL	NULL	3	NULL	NULL	NULL	NULL	Nonenol	72	24	NULL	NULL	NULL	NULL	TrialProc	NULL	NULL	NULL	NULL	NULL	NULL	NULL	NULL	NULL	NULL	NULL	NULL	NULL	NULL	NULL	NULL	Blank	TrialList	NULL	NULL	NULL	NULL	NULL	NULL	3	1	3	NULL	NULL	NULL	3	NULL	1	NULL	NULL	NULL	NULL	NULL	NULL	NULL	1	1	-999999	13	1768382	0	1	1423	1769805	NULL	NULL	NULL	NULL	SongTrial	NULL	SoundList	NULL	NULL	7	1	3	NULL	NULL	NULL	NULL
TMA Blocker Split Nostril Olfactometer_Pilot 2	48	1	<?xml version="1.0"?>\n<Clock xmlns:dt="urn:schemas-microsoft-com:datatypes"><Description dt:dt="string">E-Prime Primary Realtime Clock</Description><StartTime><Timestamp dt:dt="int">0</Timestamp><DateUtc dt:dt="string">2016-07-19T19:58:34Z</DateUtc></StartTime><FrequencyChanges><FrequencyChange><Frequency dt:dt="r8">2793160000</Frequency><Timestamp dt:dt="r8">5.34838117109329E+15</Timestamp><Current dt:dt="r8">0</Current><DateUtc dt:dt="string">2016-07-19T19:58:34Z</DateUtc></FrequencyChange></FrequencyChanges></Clock>\n	TMA Blocker Split Nostril Olfactometer_Pilot 2-48-1	74.912	1.0.0.1473	1	0		-999999	12048	3506901	0	q	67703	3574604	690951554	2.0.10.242	2.0.10.242	07-19-2016	7/19/2016 7:58:34 PM	15:58:34	2.0.10.147	19	GREEN	NULL	NULL	BlockProcA	NULL	Test1	NULL	NULL	NULL	NULL	NULL	NULL	1	1	1	NULL	NULL	NULL	No	NULL	NULL	NULL	NULL	NULL	NULL	4	NULL	NULL	NULL	NULL	Blank	66	9	NULL	NULL	NULL	NULL	TrialProc	NULL	NULL	NULL	NULL	NULL	NULL	NULL	NULL	NULL	NULL	NULL	NULL	NULL	NULL	NULL	NULL	TMA	TrialList	NULL	NULL	NULL	NULL	NULL	NULL	2	1	4	NULL	NULL	NULL	1	NULL	NULL	NULL	NULL	NULL	NULL	NULL	NULL	NULL	NULL	NULL	NULL	NULL	NULL	NULL	NULL	NULL	NULL	NULL	1	17	17	PrepareProc	NULL	Prepare	NULL	NULL	NULL	NULL	NULL	NULL	NULL	NULL	NULL
TMA Blocker Split Nostril Olfactometer_Pilot 2	48	1	<?xml version="1.0"?>\n<Clock xmlns:dt="urn:schemas-microsoft-com:datatypes"><Description dt:dt="string">E-Prime Primary Realtime Clock</Description><StartTime><Timestamp dt:dt="int">0</Timestamp><DateUtc dt:dt="string">2016-07-19T19:58:34Z</DateUtc></StartTime><FrequencyChanges><FrequencyChange><Frequency dt:dt="r8">2793160000</Frequency><Timestamp dt:dt="r8">5.34838117109329E+15</Timestamp><Current dt:dt="r8">0</Current><DateUtc dt:dt="string">2016-07-19T19:58:34Z</DateUtc></FrequencyChange></FrequencyChanges></Clock>\n	TMA Blocker Split Nostril Olfactometer_Pilot 2-48-1	74.912	1.0.0.1473	1	0		-999999	12048	3506901	0	q	67703	3574604	690951554	2.0.10.242	2.0.10.242	07-19-2016	7/19/2016 7:58:34 PM	15:58:34	2.0.10.147	19	GREEN	NULL	NULL	BlockProcA	NULL	Test1	NULL	NULL	NULL	NULL	NULL	NULL	1	1	1	NULL	NULL	NULL	No	NULL	NULL	NULL	NULL	NULL	NULL	4	NULL	NULL	NULL	NULL	Blank	66	9	NULL	NULL	NULL	NULL	TrialProc	NULL	NULL	NULL	NULL	NULL	NULL	NULL	NULL	NULL	NULL	NULL	NULL	NULL	NULL	NULL	NULL	TMA	TrialList	NULL	NULL	NULL	NULL	NULL	NULL	2	1	4	NULL	NULL	NULL	2	NULL	NULL	1	4	4	NULL	Green	475	426	NULL	NULL	NULL	NULL	NULL	NULL	NULL	NULL	NULL	1	NULL	NULL	NULL	ExperimentProc	How intense is the odor?	Experiment	NULL	NULL	NULL	NULL	NULL	NULL	NULL	NULL	?
TMA Blocker Split Nostril Olfactometer_Pilot 2	48	1	<?xml version="1.0"?>\n<Clock xmlns:dt="urn:schemas-microsoft-com:datatypes"><Description dt:dt="string">E-Prime Primary Realtime Clock</Description><StartTime><Timestamp dt:dt="int">0</Timestamp><DateUtc dt:dt="string">2016-07-19T19:58:34Z</DateUtc></StartTime><FrequencyChanges><FrequencyChange><Frequency dt:dt="r8">2793160000</Frequency><Timestamp dt:dt="r8">5.34838117109329E+15</Timestamp><Current dt:dt="r8">0</Current><DateUtc dt:dt="string">2016-07-19T19:58:34Z</DateUtc></FrequencyChange></FrequencyChanges></Clock>\n	TMA Blocker Split Nostril Olfactometer_Pilot 2-48-1	74.912	1.0.0.1473	1	0		-999999	12048	3506901	0	q	67703	3574604	690951554	2.0.10.242	2.0.10.242	07-19-2016	7/19/2016 7:58:34 PM	15:58:34	2.0.10.147	19	GREEN	NULL	NULL	BlockProcA	NULL	Test1	NULL	NULL	NULL	NULL	NULL	NULL	1	1	1	NULL	NULL	NULL	No	NULL	NULL	NULL	NULL	NULL	NULL	4	NULL	NULL	NULL	NULL	Blank	66	9	NULL	NULL	NULL	NULL	TrialProc	NULL	NULL	NULL	NULL	NULL	NULL	NULL	NULL	NULL	NULL	NULL	NULL	NULL	NULL	NULL	NULL	TMA	TrialList	NULL	NULL	NULL	NULL	NULL	NULL	2	1	4	NULL	NULL	NULL	3	NULL	1	NULL	NULL	NULL	NULL	NULL	NULL	NULL	1	1	-999999	13	1810725	0	1	1743	1812468	NULL	NULL	NULL	NULL	SongTrial	NULL	SoundList	NULL	NULL	16	1	4	NULL	NULL	NULL	NULL
TMA Blocker Split Nostril Olfactometer_Pilot 2	48	1	<?xml version="1.0"?>\n<Clock xmlns:dt="urn:schemas-microsoft-com:datatypes"><Description dt:dt="string">E-Prime Primary Realtime Clock</Description><StartTime><Timestamp dt:dt="int">0</Timestamp><DateUtc dt:dt="string">2016-07-19T19:58:34Z</DateUtc></StartTime><FrequencyChanges><FrequencyChange><Frequency dt:dt="r8">2793160000</Frequency><Timestamp dt:dt="r8">5.34838117109329E+15</Timestamp><Current dt:dt="r8">0</Current><DateUtc dt:dt="string">2016-07-19T19:58:34Z</DateUtc></FrequencyChange></FrequencyChanges></Clock>\n	TMA Blocker Split Nostril Olfactometer_Pilot 2-48-1	74.912	1.0.0.1473	1	0		-999999	12048	3506901	0	q	67703	3574604	690951554	2.0.10.242	2.0.10.242	07-19-2016	7/19/2016 7:58:34 PM	15:58:34	2.0.10.147	19	GREEN	NULL	NULL	BlockProcA	NULL	Test1	NULL	NULL	NULL	NULL	NULL	NULL	1	1	1	NULL	NULL	NULL	No	NULL	NULL	NULL	NULL	NULL	NULL	5	NULL	NULL	NULL	NULL	TMA	3	24	NULL	NULL	NULL	NULL	TrialProc	NULL	NULL	NULL	NULL	NULL	NULL	NULL	NULL	NULL	NULL	NULL	NULL	NULL	NULL	NULL	NULL	Blank	TrialList	NULL	NULL	NULL	NULL	NULL	NULL	1	1	5	NULL	NULL	NULL	1	NULL	NULL	NULL	NULL	NULL	NULL	NULL	NULL	NULL	NULL	NULL	NULL	NULL	NULL	NULL	NULL	NULL	NULL	NULL	1	18	18	PrepareProc	NULL	Prepare	NULL	NULL	NULL	NULL	NULL	NULL	NULL	NULL	NULL
TMA Blocker Split Nostril Olfactometer_Pilot 2	48	1	<?xml version="1.0"?>\n<Clock xmlns:dt="urn:schemas-microsoft-com:datatypes"><Description dt:dt="string">E-Prime Primary Realtime Clock</Description><StartTime><Timestamp dt:dt="int">0</Timestamp><DateUtc dt:dt="string">2016-07-19T19:58:34Z</DateUtc></StartTime><FrequencyChanges><FrequencyChange><Frequency dt:dt="r8">2793160000</Frequency><Timestamp dt:dt="r8">5.34838117109329E+15</Timestamp><Current dt:dt="r8">0</Current><DateUtc dt:dt="string">2016-07-19T19:58:34Z</DateUtc></FrequencyChange></FrequencyChanges></Clock>\n	TMA Blocker Split Nostril Olfactometer_Pilot 2-48-1	74.912	1.0.0.1473	1	0		-999999	12048	3506901	0	q	67703	3574604	690951554	2.0.10.242	2.0.10.242	07-19-2016	7/19/2016 7:58:34 PM	15:58:34	2.0.10.147	19	GREEN	NULL	NULL	BlockProcA	NULL	Test1	NULL	NULL	NULL	NULL	NULL	NULL	1	1	1	NULL	NULL	NULL	No	NULL	NULL	NULL	NULL	NULL	NULL	5	NULL	NULL	NULL	NULL	TMA	3	24	NULL	NULL	NULL	NULL	TrialProc	NULL	NULL	NULL	NULL	NULL	NULL	NULL	NULL	NULL	NULL	NULL	NULL	NULL	NULL	NULL	NULL	Blank	TrialList	NULL	NULL	NULL	NULL	NULL	NULL	1	1	5	NULL	NULL	NULL	2	NULL	NULL	1	5	5	NULL	Green	428	460	NULL	NULL	NULL	NULL	NULL	NULL	NULL	NULL	NULL	1	NULL	NULL	NULL	ExperimentProc	How intense is the odor?	Experiment	NULL	NULL	NULL	NULL	NULL	NULL	NULL	NULL	?
TMA Blocker Split Nostril Olfactometer_Pilot 2	48	1	<?xml version="1.0"?>\n<Clock xmlns:dt="urn:schemas-microsoft-com:datatypes"><Description dt:dt="string">E-Prime Primary Realtime Clock</Description><StartTime><Timestamp dt:dt="int">0</Timestamp><DateUtc dt:dt="string">2016-07-19T19:58:34Z</DateUtc></StartTime><FrequencyChanges><FrequencyChange><Frequency dt:dt="r8">2793160000</Frequency><Timestamp dt:dt="r8">5.34838117109329E+15</Timestamp><Current dt:dt="r8">0</Current><DateUtc dt:dt="string">2016-07-19T19:58:34Z</DateUtc></FrequencyChange></FrequencyChanges></Clock>\n	TMA Blocker Split Nostril Olfactometer_Pilot 2-48-1	74.912	1.0.0.1473	1	0		-999999	12048	3506901	0	q	67703	3574604	690951554	2.0.10.242	2.0.10.242	07-19-2016	7/19/2016 7:58:34 PM	15:58:34	2.0.10.147	19	GREEN	NULL	NULL	BlockProcA	NULL	Test1	NULL	NULL	NULL	NULL	NULL	NULL	1	1	1	NULL	NULL	NULL	No	NULL	NULL	NULL	NULL	NULL	NULL	5	NULL	NULL	NULL	NULL	TMA	3	24	NULL	NULL	NULL	NULL	TrialProc	NULL	NULL	NULL	NULL	NULL	NULL	NULL	NULL	NULL	NULL	NULL	NULL	NULL	NULL	NULL	NULL	Blank	TrialList	NULL	NULL	NULL	NULL	NULL	NULL	1	1	5	NULL	NULL	NULL	3	NULL	1	NULL	NULL	NULL	NULL	NULL	NULL	NULL	0	1	-999999	26	1851960	0	2	1666	1853626	NULL	NULL	NULL	NULL	SongTrial	NULL	SoundList	NULL	NULL	4	1	5	NULL	NULL	NULL	NULL
TMA Blocker Split Nostril Olfactometer_Pilot 2	48	1	<?xml version="1.0"?>\n<Clock xmlns:dt="urn:schemas-microsoft-com:datatypes"><Description dt:dt="string">E-Prime Primary Realtime Clock</Description><StartTime><Timestamp dt:dt="int">0</Timestamp><DateUtc dt:dt="string">2016-07-19T19:58:34Z</DateUtc></StartTime><FrequencyChanges><FrequencyChange><Frequency dt:dt="r8">2793160000</Frequency><Timestamp dt:dt="r8">5.34838117109329E+15</Timestamp><Current dt:dt="r8">0</Current><DateUtc dt:dt="string">2016-07-19T19:58:34Z</DateUtc></FrequencyChange></FrequencyChanges></Clock>\n	TMA Blocker Split Nostril Olfactometer_Pilot 2-48-1	74.912	1.0.0.1473	1	0		-999999	12048	3506901	0	q	67703	3574604	690951554	2.0.10.242	2.0.10.242	07-19-2016	7/19/2016 7:58:34 PM	15:58:34	2.0.10.147	19	GREEN	NULL	NULL	BlockProcA	NULL	Test1	NULL	NULL	NULL	NULL	NULL	NULL	1	1	1	NULL	NULL	NULL	No	NULL	NULL	NULL	NULL	NULL	NULL	6	NULL	NULL	NULL	NULL	Blank	66	24	NULL	NULL	NULL	NULL	TrialProc	NULL	NULL	NULL	NULL	NULL	NULL	NULL	NULL	NULL	NULL	NULL	NULL	NULL	NULL	NULL	NULL	Blank	TrialList	NULL	NULL	NULL	NULL	NULL	NULL	9	1	6	NULL	NULL	NULL	1	NULL	NULL	NULL	NULL	NULL	NULL	NULL	NULL	NULL	NULL	NULL	NULL	NULL	NULL	NULL	NULL	NULL	NULL	NULL	1	19	19	PrepareProc	NULL	Prepare	NULL	NULL	NULL	NULL	NULL	NULL	NULL	NULL	NULL
TMA Blocker Split Nostril Olfactometer_Pilot 2	48	1	<?xml version="1.0"?>\n<Clock xmlns:dt="urn:schemas-microsoft-com:datatypes"><Description dt:dt="string">E-Prime Primary Realtime Clock</Description><StartTime><Timestamp dt:dt="int">0</Timestamp><DateUtc dt:dt="string">2016-07-19T19:58:34Z</DateUtc></StartTime><FrequencyChanges><FrequencyChange><Frequency dt:dt="r8">2793160000</Frequency><Timestamp dt:dt="r8">5.34838117109329E+15</Timestamp><Current dt:dt="r8">0</Current><DateUtc dt:dt="string">2016-07-19T19:58:34Z</DateUtc></FrequencyChange></FrequencyChanges></Clock>\n	TMA Blocker Split Nostril Olfactometer_Pilot 2-48-1	74.912	1.0.0.1473	1	0		-999999	12048	3506901	0	q	67703	3574604	690951554	2.0.10.242	2.0.10.242	07-19-2016	7/19/2016 7:58:34 PM	15:58:34	2.0.10.147	19	GREEN	NULL	NULL	BlockProcA	NULL	Test1	NULL	NULL	NULL	NULL	NULL	NULL	1	1	1	NULL	NULL	NULL	No	NULL	NULL	NULL	NULL	NULL	NULL	6	NULL	NULL	NULL	NULL	Blank	66	24	NULL	NULL	NULL	NULL	TrialProc	NULL	NULL	NULL	NULL	NULL	NULL	NULL	NULL	NULL	NULL	NULL	NULL	NULL	NULL	NULL	NULL	Blank	TrialList	NULL	NULL	NULL	NULL	NULL	NULL	9	1	6	NULL	NULL	NULL	2	NULL	NULL	1	6	6	NULL	Green	437	550	NULL	NULL	NULL	NULL	NULL	NULL	NULL	NULL	NULL	1	NULL	NULL	NULL	ExperimentProc	How intense is the odor?	Experiment	NULL	NULL	NULL	NULL	NULL	NULL	NULL	NULL	?
TMA Blocker Split Nostril Olfactometer_Pilot 2	48	1	<?xml version="1.0"?>\n<Clock xmlns:dt="urn:schemas-microsoft-com:datatypes"><Description dt:dt="string">E-Prime Primary Realtime Clock</Description><StartTime><Timestamp dt:dt="int">0</Timestamp><DateUtc dt:dt="string">2016-07-19T19:58:34Z</DateUtc></StartTime><FrequencyChanges><FrequencyChange><Frequency dt:dt="r8">2793160000</Frequency><Timestamp dt:dt="r8">5.34838117109329E+15</Timestamp><Current dt:dt="r8">0</Current><DateUtc dt:dt="string">2016-07-19T19:58:34Z</DateUtc></FrequencyChange></FrequencyChanges></Clock>\n	TMA Blocker Split Nostril Olfactometer_Pilot 2-48-1	74.912	1.0.0.1473	1	0		-999999	12048	3506901	0	q	67703	3574604	690951554	2.0.10.242	2.0.10.242	07-19-2016	7/19/2016 7:58:34 PM	15:58:34	2.0.10.147	19	GREEN	NULL	NULL	BlockProcA	NULL	Test1	NULL	NULL	NULL	NULL	NULL	NULL	1	1	1	NULL	NULL	NULL	No	NULL	NULL	NULL	NULL	NULL	NULL	6	NULL	NULL	NULL	NULL	Blank	66	24	NULL	NULL	NULL	NULL	TrialProc	NULL	NULL	NULL	NULL	NULL	NULL	NULL	NULL	NULL	NULL	NULL	NULL	NULL	NULL	NULL	NULL	Blank	TrialList	NULL	NULL	NULL	NULL	NULL	NULL	9	1	6	NULL	NULL	NULL	3	NULL	1	NULL	NULL	NULL	NULL	NULL	NULL	NULL	0	1	-999999	13	1894264	0	2	1073	1895337	NULL	NULL	NULL	NULL	SongTrial	NULL	SoundList	NULL	NULL	5	1	6	NULL	NULL	NULL	NULL
TMA Blocker Split Nostril Olfactometer_Pilot 2	48	1	<?xml version="1.0"?>\n<Clock xmlns:dt="urn:schemas-microsoft-com:datatypes"><Description dt:dt="string">E-Prime Primary Realtime Clock</Description><StartTime><Timestamp dt:dt="int">0</Timestamp><DateUtc dt:dt="string">2016-07-19T19:58:34Z</DateUtc></StartTime><FrequencyChanges><FrequencyChange><Frequency dt:dt="r8">2793160000</Frequency><Timestamp dt:dt="r8">5.34838117109329E+15</Timestamp><Current dt:dt="r8">0</Current><DateUtc dt:dt="string">2016-07-19T19:58:34Z</DateUtc></FrequencyChange></FrequencyChanges></Clock>\n	TMA Blocker Split Nostril Olfactometer_Pilot 2-48-1	74.912	1.0.0.1473	1	0		-999999	12048	3506901	0	q	67703	3574604	690951554	2.0.10.242	2.0.10.242	07-19-2016	7/19/2016 7:58:34 PM	15:58:34	2.0.10.147	19	GREEN	NULL	NULL	BlockProcA	NULL	Test1	NULL	NULL	NULL	NULL	NULL	NULL	1	1	1	NULL	NULL	NULL	No	NULL	NULL	NULL	NULL	NULL	NULL	7	NULL	NULL	NULL	NULL	TMA	3	48	NULL	NULL	NULL	NULL	TrialProc	NULL	NULL	NULL	NULL	NULL	NULL	NULL	NULL	NULL	NULL	NULL	NULL	NULL	NULL	NULL	NULL	Nonenol	TrialList	NULL	NULL	NULL	NULL	NULL	NULL	7	1	7	NULL	NULL	NULL	1	NULL	NULL	NULL	NULL	NULL	NULL	NULL	NULL	NULL	NULL	NULL	NULL	NULL	NULL	NULL	NULL	NULL	NULL	NULL	1	20	20	PrepareProc	NULL	Prepare	NULL	NULL	NULL	NULL	NULL	NULL	NULL	NULL	NULL
TMA Blocker Split Nostril Olfactometer_Pilot 2	48	1	<?xml version="1.0"?>\n<Clock xmlns:dt="urn:schemas-microsoft-com:datatypes"><Description dt:dt="string">E-Prime Primary Realtime Clock</Description><StartTime><Timestamp dt:dt="int">0</Timestamp><DateUtc dt:dt="string">2016-07-19T19:58:34Z</DateUtc></StartTime><FrequencyChanges><FrequencyChange><Frequency dt:dt="r8">2793160000</Frequency><Timestamp dt:dt="r8">5.34838117109329E+15</Timestamp><Current dt:dt="r8">0</Current><DateUtc dt:dt="string">2016-07-19T19:58:34Z</DateUtc></FrequencyChange></FrequencyChanges></Clock>\n	TMA Blocker Split Nostril Olfactometer_Pilot 2-48-1	74.912	1.0.0.1473	1	0		-999999	12048	3506901	0	q	67703	3574604	690951554	2.0.10.242	2.0.10.242	07-19-2016	7/19/2016 7:58:34 PM	15:58:34	2.0.10.147	19	GREEN	NULL	NULL	BlockProcA	NULL	Test1	NULL	NULL	NULL	NULL	NULL	NULL	1	1	1	NULL	NULL	NULL	No	NULL	NULL	NULL	NULL	NULL	NULL	7	NULL	NULL	NULL	NULL	TMA	3	48	NULL	NULL	NULL	NULL	TrialProc	NULL	NULL	NULL	NULL	NULL	NULL	NULL	NULL	NULL	NULL	NULL	NULL	NULL	NULL	NULL	NULL	Nonenol	TrialList	NULL	NULL	NULL	NULL	NULL	NULL	7	1	7	NULL	NULL	NULL	2	NULL	NULL	1	7	7	NULL	Green	418	500	NULL	NULL	NULL	NULL	NULL	NULL	NULL	NULL	NULL	1	NULL	NULL	NULL	ExperimentProc	How intense is the odor?	Experiment	NULL	NULL	NULL	NULL	NULL	NULL	NULL	NULL	?
TMA Blocker Split Nostril Olfactometer_Pilot 2	48	1	<?xml version="1.0"?>\n<Clock xmlns:dt="urn:schemas-microsoft-com:datatypes"><Description dt:dt="string">E-Prime Primary Realtime Clock</Description><StartTime><Timestamp dt:dt="int">0</Timestamp><DateUtc dt:dt="string">2016-07-19T19:58:34Z</DateUtc></StartTime><FrequencyChanges><FrequencyChange><Frequency dt:dt="r8">2793160000</Frequency><Timestamp dt:dt="r8">5.34838117109329E+15</Timestamp><Current dt:dt="r8">0</Current><DateUtc dt:dt="string">2016-07-19T19:58:34Z</DateUtc></FrequencyChange></FrequencyChanges></Clock>\n	TMA Blocker Split Nostril Olfactometer_Pilot 2-48-1	74.912	1.0.0.1473	1	0		-999999	12048	3506901	0	q	67703	3574604	690951554	2.0.10.242	2.0.10.242	07-19-2016	7/19/2016 7:58:34 PM	15:58:34	2.0.10.147	19	GREEN	NULL	NULL	BlockProcA	NULL	Test1	NULL	NULL	NULL	NULL	NULL	NULL	1	1	1	NULL	NULL	NULL	No	NULL	NULL	NULL	NULL	NULL	NULL	7	NULL	NULL	NULL	NULL	TMA	3	48	NULL	NULL	NULL	NULL	TrialProc	NULL	NULL	NULL	NULL	NULL	NULL	NULL	NULL	NULL	NULL	NULL	NULL	NULL	NULL	NULL	NULL	Nonenol	TrialList	NULL	NULL	NULL	NULL	NULL	NULL	7	1	7	NULL	NULL	NULL	3	NULL	2	NULL	NULL	NULL	NULL	NULL	NULL	NULL	0	2	-999999	13	1935579	0	1	1109	1936688	NULL	NULL	NULL	NULL	SongTrial	NULL	SoundList	NULL	NULL	12	1	7	NULL	NULL	NULL	NULL
TMA Blocker Split Nostril Olfactometer_Pilot 2	48	1	<?xml version="1.0"?>\n<Clock xmlns:dt="urn:schemas-microsoft-com:datatypes"><Description dt:dt="string">E-Prime Primary Realtime Clock</Description><StartTime><Timestamp dt:dt="int">0</Timestamp><DateUtc dt:dt="string">2016-07-19T19:58:34Z</DateUtc></StartTime><FrequencyChanges><FrequencyChange><Frequency dt:dt="r8">2793160000</Frequency><Timestamp dt:dt="r8">5.34838117109329E+15</Timestamp><Current dt:dt="r8">0</Current><DateUtc dt:dt="string">2016-07-19T19:58:34Z</DateUtc></FrequencyChange></FrequencyChanges></Clock>\n	TMA Blocker Split Nostril Olfactometer_Pilot 2-48-1	74.912	1.0.0.1473	1	0		-999999	12048	3506901	0	q	67703	3574604	690951554	2.0.10.242	2.0.10.242	07-19-2016	7/19/2016 7:58:34 PM	15:58:34	2.0.10.147	19	GREEN	NULL	NULL	BlockProcA	NULL	Test1	NULL	NULL	NULL	NULL	NULL	NULL	1	1	1	NULL	NULL	NULL	No	NULL	NULL	NULL	NULL	NULL	NULL	8	NULL	NULL	NULL	NULL	TMA+Nonenol	9	24	NULL	NULL	NULL	NULL	TrialProc	NULL	NULL	NULL	NULL	NULL	NULL	NULL	NULL	NULL	NULL	NULL	NULL	NULL	NULL	NULL	NULL	Blank	TrialList	NULL	NULL	NULL	NULL	NULL	NULL	5	1	8	NULL	NULL	NULL	1	NULL	NULL	NULL	NULL	NULL	NULL	NULL	NULL	NULL	NULL	NULL	NULL	NULL	NULL	NULL	NULL	NULL	NULL	NULL	1	21	21	PrepareProc	NULL	Prepare	NULL	NULL	NULL	NULL	NULL	NULL	NULL	NULL	NULL
TMA Blocker Split Nostril Olfactometer_Pilot 2	48	1	<?xml version="1.0"?>\n<Clock xmlns:dt="urn:schemas-microsoft-com:datatypes"><Description dt:dt="string">E-Prime Primary Realtime Clock</Description><StartTime><Timestamp dt:dt="int">0</Timestamp><DateUtc dt:dt="string">2016-07-19T19:58:34Z</DateUtc></StartTime><FrequencyChanges><FrequencyChange><Frequency dt:dt="r8">2793160000</Frequency><Timestamp dt:dt="r8">5.34838117109329E+15</Timestamp><Current dt:dt="r8">0</Current><DateUtc dt:dt="string">2016-07-19T19:58:34Z</DateUtc></FrequencyChange></FrequencyChanges></Clock>\n	TMA Blocker Split Nostril Olfactometer_Pilot 2-48-1	74.912	1.0.0.1473	1	0		-999999	12048	3506901	0	q	67703	3574604	690951554	2.0.10.242	2.0.10.242	07-19-2016	7/19/2016 7:58:34 PM	15:58:34	2.0.10.147	19	GREEN	NULL	NULL	BlockProcA	NULL	Test1	NULL	NULL	NULL	NULL	NULL	NULL	1	1	1	NULL	NULL	NULL	No	NULL	NULL	NULL	NULL	NULL	NULL	8	NULL	NULL	NULL	NULL	TMA+Nonenol	9	24	NULL	NULL	NULL	NULL	TrialProc	NULL	NULL	NULL	NULL	NULL	NULL	NULL	NULL	NULL	NULL	NULL	NULL	NULL	NULL	NULL	NULL	Blank	TrialList	NULL	NULL	NULL	NULL	NULL	NULL	5	1	8	NULL	NULL	NULL	2	NULL	NULL	1	8	8	NULL	Green	454	438	NULL	NULL	NULL	NULL	NULL	NULL	NULL	NULL	NULL	1	NULL	NULL	NULL	ExperimentProc	How intense is the odor?	Experiment	NULL	NULL	NULL	NULL	NULL	NULL	NULL	NULL	?
TMA Blocker Split Nostril Olfactometer_Pilot 2	48	1	<?xml version="1.0"?>\n<Clock xmlns:dt="urn:schemas-microsoft-com:datatypes"><Description dt:dt="string">E-Prime Primary Realtime Clock</Description><StartTime><Timestamp dt:dt="int">0</Timestamp><DateUtc dt:dt="string">2016-07-19T19:58:34Z</DateUtc></StartTime><FrequencyChanges><FrequencyChange><Frequency dt:dt="r8">2793160000</Frequency><Timestamp dt:dt="r8">5.34838117109329E+15</Timestamp><Current dt:dt="r8">0</Current><DateUtc dt:dt="string">2016-07-19T19:58:34Z</DateUtc></FrequencyChange></FrequencyChanges></Clock>\n	TMA Blocker Split Nostril Olfactometer_Pilot 2-48-1	74.912	1.0.0.1473	1	0		-999999	12048	3506901	0	q	67703	3574604	690951554	2.0.10.242	2.0.10.242	07-19-2016	7/19/2016 7:58:34 PM	15:58:34	2.0.10.147	19	GREEN	NULL	NULL	BlockProcA	NULL	Test1	NULL	NULL	NULL	NULL	NULL	NULL	1	1	1	NULL	NULL	NULL	No	NULL	NULL	NULL	NULL	NULL	NULL	8	NULL	NULL	NULL	NULL	TMA+Nonenol	9	24	NULL	NULL	NULL	NULL	TrialProc	NULL	NULL	NULL	NULL	NULL	NULL	NULL	NULL	NULL	NULL	NULL	NULL	NULL	NULL	NULL	NULL	Blank	TrialList	NULL	NULL	NULL	NULL	NULL	NULL	5	1	8	NULL	NULL	NULL	3	NULL	1	NULL	NULL	NULL	NULL	NULL	NULL	NULL	0	1	-999999	13	1976267	0	2	1867	1978134	NULL	NULL	NULL	NULL	SongTrial	NULL	SoundList	NULL	NULL	14	1	8	NULL	NULL	NULL	NULL
TMA Blocker Split Nostril Olfactometer_Pilot 2	48	1	<?xml version="1.0"?>\n<Clock xmlns:dt="urn:schemas-microsoft-com:datatypes"><Description dt:dt="string">E-Prime Primary Realtime Clock</Description><StartTime><Timestamp dt:dt="int">0</Timestamp><DateUtc dt:dt="string">2016-07-19T19:58:34Z</DateUtc></StartTime><FrequencyChanges><FrequencyChange><Frequency dt:dt="r8">2793160000</Frequency><Timestamp dt:dt="r8">5.34838117109329E+15</Timestamp><Current dt:dt="r8">0</Current><DateUtc dt:dt="string">2016-07-19T19:58:34Z</DateUtc></FrequencyChange></FrequencyChanges></Clock>\n	TMA Blocker Split Nostril Olfactometer_Pilot 2-48-1	74.912	1.0.0.1473	1	0		-999999	12048	3506901	0	q	67703	3574604	690951554	2.0.10.242	2.0.10.242	07-19-2016	7/19/2016 7:58:34 PM	15:58:34	2.0.10.147	19	GREEN	NULL	NULL	BlockProcA	NULL	Test1	NULL	NULL	NULL	NULL	NULL	NULL	1	1	1	NULL	NULL	NULL	No	NULL	NULL	NULL	NULL	NULL	NULL	9	NULL	NULL	NULL	NULL	Blank	66	48	NULL	NULL	NULL	NULL	TrialProc	NULL	NULL	NULL	NULL	NULL	NULL	NULL	NULL	NULL	NULL	NULL	NULL	NULL	NULL	NULL	NULL	Nonenol	TrialList	NULL	NULL	NULL	NULL	NULL	NULL	4	1	9	NULL	NULL	NULL	1	NULL	NULL	NULL	NULL	NULL	NULL	NULL	NULL	NULL	NULL	NULL	NULL	NULL	NULL	NULL	NULL	NULL	NULL	NULL	1	22	22	PrepareProc	NULL	Prepare	NULL	NULL	NULL	NULL	NULL	NULL	NULL	NULL	NULL
TMA Blocker Split Nostril Olfactometer_Pilot 2	48	1	<?xml version="1.0"?>\n<Clock xmlns:dt="urn:schemas-microsoft-com:datatypes"><Description dt:dt="string">E-Prime Primary Realtime Clock</Description><StartTime><Timestamp dt:dt="int">0</Timestamp><DateUtc dt:dt="string">2016-07-19T19:58:34Z</DateUtc></StartTime><FrequencyChanges><FrequencyChange><Frequency dt:dt="r8">2793160000</Frequency><Timestamp dt:dt="r8">5.34838117109329E+15</Timestamp><Current dt:dt="r8">0</Current><DateUtc dt:dt="string">2016-07-19T19:58:34Z</DateUtc></FrequencyChange></FrequencyChanges></Clock>\n	TMA Blocker Split Nostril Olfactometer_Pilot 2-48-1	74.912	1.0.0.1473	1	0		-999999	12048	3506901	0	q	67703	3574604	690951554	2.0.10.242	2.0.10.242	07-19-2016	7/19/2016 7:58:34 PM	15:58:34	2.0.10.147	19	GREEN	NULL	NULL	BlockProcA	NULL	Test1	NULL	NULL	NULL	NULL	NULL	NULL	1	1	1	NULL	NULL	NULL	No	NULL	NULL	NULL	NULL	NULL	NULL	9	NULL	NULL	NULL	NULL	Blank	66	48	NULL	NULL	NULL	NULL	TrialProc	NULL	NULL	NULL	NULL	NULL	NULL	NULL	NULL	NULL	NULL	NULL	NULL	NULL	NULL	NULL	NULL	Nonenol	TrialList	NULL	NULL	NULL	NULL	NULL	NULL	4	1	9	NULL	NULL	NULL	2	NULL	NULL	1	9	9	NULL	Green	496	518	NULL	NULL	NULL	NULL	NULL	NULL	NULL	NULL	NULL	1	NULL	NULL	NULL	ExperimentProc	How intense is the odor?	Experiment	NULL	NULL	NULL	NULL	NULL	NULL	NULL	NULL	?
TMA Blocker Split Nostril Olfactometer_Pilot 2	48	1	<?xml version="1.0"?>\n<Clock xmlns:dt="urn:schemas-microsoft-com:datatypes"><Description dt:dt="string">E-Prime Primary Realtime Clock</Description><StartTime><Timestamp dt:dt="int">0</Timestamp><DateUtc dt:dt="string">2016-07-19T19:58:34Z</DateUtc></StartTime><FrequencyChanges><FrequencyChange><Frequency dt:dt="r8">2793160000</Frequency><Timestamp dt:dt="r8">5.34838117109329E+15</Timestamp><Current dt:dt="r8">0</Current><DateUtc dt:dt="string">2016-07-19T19:58:34Z</DateUtc></FrequencyChange></FrequencyChanges></Clock>\n	TMA Blocker Split Nostril Olfactometer_Pilot 2-48-1	74.912	1.0.0.1473	1	0		-999999	12048	3506901	0	q	67703	3574604	690951554	2.0.10.242	2.0.10.242	07-19-2016	7/19/2016 7:58:34 PM	15:58:34	2.0.10.147	19	GREEN	NULL	NULL	BlockProcA	NULL	Test1	NULL	NULL	NULL	NULL	NULL	NULL	1	1	1	NULL	NULL	NULL	No	NULL	NULL	NULL	NULL	NULL	NULL	9	NULL	NULL	NULL	NULL	Blank	66	48	NULL	NULL	NULL	NULL	TrialProc	NULL	NULL	NULL	NULL	NULL	NULL	NULL	NULL	NULL	NULL	NULL	NULL	NULL	NULL	NULL	NULL	Nonenol	TrialList	NULL	NULL	NULL	NULL	NULL	NULL	4	1	9	NULL	NULL	NULL	3	NULL	2	NULL	NULL	NULL	NULL	NULL	NULL	NULL	1	2	-999999	13	2020026	0	2	2075	2022101	NULL	NULL	NULL	NULL	SongTrial	NULL	SoundList	NULL	NULL	17	1	9	NULL	NULL	NULL	NULL
TMA Blocker Split Nostril Olfactometer_Pilot 2	48	1	<?xml version="1.0"?>\n<Clock xmlns:dt="urn:schemas-microsoft-com:datatypes"><Description dt:dt="string">E-Prime Primary Realtime Clock</Description><StartTime><Timestamp dt:dt="int">0</Timestamp><DateUtc dt:dt="string">2016-07-19T19:58:34Z</DateUtc></StartTime><FrequencyChanges><FrequencyChange><Frequency dt:dt="r8">2793160000</Frequency><Timestamp dt:dt="r8">5.34838117109329E+15</Timestamp><Current dt:dt="r8">0</Current><DateUtc dt:dt="string">2016-07-19T19:58:34Z</DateUtc></FrequencyChange></FrequencyChanges></Clock>\n	TMA Blocker Split Nostril Olfactometer_Pilot 2-48-1	74.912	1.0.0.1473	1	0		-999999	12048	3506901	0	q	67703	3574604	690951554	2.0.10.242	2.0.10.242	07-19-2016	7/19/2016 7:58:34 PM	15:58:34	2.0.10.147	19	GREEN	NULL	NULL	BlockProcA	NULL	Test1	NULL	NULL	NULL	NULL	NULL	NULL	1	1	1	NULL	NULL	NULL	No	NULL	NULL	NULL	NULL	NULL	NULL	10	NULL	NULL	NULL	NULL	Blank	66	24	NULL	NULL	NULL	NULL	TrialProc	NULL	NULL	NULL	NULL	NULL	NULL	NULL	NULL	NULL	NULL	NULL	NULL	NULL	NULL	NULL	NULL	Blank	TrialList	NULL	NULL	NULL	NULL	NULL	NULL	9	2	10	NULL	NULL	NULL	1	NULL	NULL	NULL	NULL	NULL	NULL	NULL	NULL	NULL	NULL	NULL	NULL	NULL	NULL	NULL	NULL	NULL	NULL	NULL	1	23	23	PrepareProc	NULL	Prepare	NULL	NULL	NULL	NULL	NULL	NULL	NULL	NULL	NULL
TMA Blocker Split Nostril Olfactometer_Pilot 2	48	1	<?xml version="1.0"?>\n<Clock xmlns:dt="urn:schemas-microsoft-com:datatypes"><Description dt:dt="string">E-Prime Primary Realtime Clock</Description><StartTime><Timestamp dt:dt="int">0</Timestamp><DateUtc dt:dt="string">2016-07-19T19:58:34Z</DateUtc></StartTime><FrequencyChanges><FrequencyChange><Frequency dt:dt="r8">2793160000</Frequency><Timestamp dt:dt="r8">5.34838117109329E+15</Timestamp><Current dt:dt="r8">0</Current><DateUtc dt:dt="string">2016-07-19T19:58:34Z</DateUtc></FrequencyChange></FrequencyChanges></Clock>\n	TMA Blocker Split Nostril Olfactometer_Pilot 2-48-1	74.912	1.0.0.1473	1	0		-999999	12048	3506901	0	q	67703	3574604	690951554	2.0.10.242	2.0.10.242	07-19-2016	7/19/2016 7:58:34 PM	15:58:34	2.0.10.147	19	GREEN	NULL	NULL	BlockProcA	NULL	Test1	NULL	NULL	NULL	NULL	NULL	NULL	1	1	1	NULL	NULL	NULL	No	NULL	NULL	NULL	NULL	NULL	NULL	10	NULL	NULL	NULL	NULL	Blank	66	24	NULL	NULL	NULL	NULL	TrialProc	NULL	NULL	NULL	NULL	NULL	NULL	NULL	NULL	NULL	NULL	NULL	NULL	NULL	NULL	NULL	NULL	Blank	TrialList	NULL	NULL	NULL	NULL	NULL	NULL	9	2	10	NULL	NULL	NULL	2	NULL	NULL	1	10	10	NULL	Green	379	536	NULL	NULL	NULL	NULL	NULL	NULL	NULL	NULL	NULL	1	NULL	NULL	NULL	ExperimentProc	How intense is the odor?	Experiment	NULL	NULL	NULL	NULL	NULL	NULL	NULL	NULL	?
TMA Blocker Split Nostril Olfactometer_Pilot 2	48	1	<?xml version="1.0"?>\n<Clock xmlns:dt="urn:schemas-microsoft-com:datatypes"><Description dt:dt="string">E-Prime Primary Realtime Clock</Description><StartTime><Timestamp dt:dt="int">0</Timestamp><DateUtc dt:dt="string">2016-07-19T19:58:34Z</DateUtc></StartTime><FrequencyChanges><FrequencyChange><Frequency dt:dt="r8">2793160000</Frequency><Timestamp dt:dt="r8">5.34838117109329E+15</Timestamp><Current dt:dt="r8">0</Current><DateUtc dt:dt="string">2016-07-19T19:58:34Z</DateUtc></FrequencyChange></FrequencyChanges></Clock>\n	TMA Blocker Split Nostril Olfactometer_Pilot 2-48-1	74.912	1.0.0.1473	1	0		-999999	12048	3506901	0	q	67703	3574604	690951554	2.0.10.242	2.0.10.242	07-19-2016	7/19/2016 7:58:34 PM	15:58:34	2.0.10.147	19	GREEN	NULL	NULL	BlockProcA	NULL	Test1	NULL	NULL	NULL	NULL	NULL	NULL	1	1	1	NULL	NULL	NULL	No	NULL	NULL	NULL	NULL	NULL	NULL	10	NULL	NULL	NULL	NULL	Blank	66	24	NULL	NULL	NULL	NULL	TrialProc	NULL	NULL	NULL	NULL	NULL	NULL	NULL	NULL	NULL	NULL	NULL	NULL	NULL	NULL	NULL	NULL	Blank	TrialList	NULL	NULL	NULL	NULL	NULL	NULL	9	2	10	NULL	NULL	NULL	3	NULL	2	NULL	NULL	NULL	NULL	NULL	NULL	NULL	0	2	-999999	13	2062075	0	1	4928	2067003	NULL	NULL	NULL	NULL	SongTrial	NULL	SoundList	NULL	NULL	18	1	10	NULL	NULL	NULL	NULL
TMA Blocker Split Nostril Olfactometer_Pilot 2	48	1	<?xml version="1.0"?>\n<Clock xmlns:dt="urn:schemas-microsoft-com:datatypes"><Description dt:dt="string">E-Prime Primary Realtime Clock</Description><StartTime><Timestamp dt:dt="int">0</Timestamp><DateUtc dt:dt="string">2016-07-19T19:58:34Z</DateUtc></StartTime><FrequencyChanges><FrequencyChange><Frequency dt:dt="r8">2793160000</Frequency><Timestamp dt:dt="r8">5.34838117109329E+15</Timestamp><Current dt:dt="r8">0</Current><DateUtc dt:dt="string">2016-07-19T19:58:34Z</DateUtc></FrequencyChange></FrequencyChanges></Clock>\n	TMA Blocker Split Nostril Olfactometer_Pilot 2-48-1	74.912	1.0.0.1473	1	0		-999999	12048	3506901	0	q	67703	3574604	690951554	2.0.10.242	2.0.10.242	07-19-2016	7/19/2016 7:58:34 PM	15:58:34	2.0.10.147	19	GREEN	NULL	NULL	BlockProcA	NULL	Test1	NULL	NULL	NULL	NULL	NULL	NULL	1	1	1	NULL	NULL	NULL	No	NULL	NULL	NULL	NULL	NULL	NULL	11	NULL	NULL	NULL	NULL	Blank	66	9	NULL	NULL	NULL	NULL	TrialProc	NULL	NULL	NULL	NULL	NULL	NULL	NULL	NULL	NULL	NULL	NULL	NULL	NULL	NULL	NULL	NULL	TMA	TrialList	NULL	NULL	NULL	NULL	NULL	NULL	2	2	11	NULL	NULL	NULL	1	NULL	NULL	NULL	NULL	NULL	NULL	NULL	NULL	NULL	NULL	NULL	NULL	NULL	NULL	NULL	NULL	NULL	NULL	NULL	1	24	24	PrepareProc	NULL	Prepare	NULL	NULL	NULL	NULL	NULL	NULL	NULL	NULL	NULL
TMA Blocker Split Nostril Olfactometer_Pilot 2	48	1	<?xml version="1.0"?>\n<Clock xmlns:dt="urn:schemas-microsoft-com:datatypes"><Description dt:dt="string">E-Prime Primary Realtime Clock</Description><StartTime><Timestamp dt:dt="int">0</Timestamp><DateUtc dt:dt="string">2016-07-19T19:58:34Z</DateUtc></StartTime><FrequencyChanges><FrequencyChange><Frequency dt:dt="r8">2793160000</Frequency><Timestamp dt:dt="r8">5.34838117109329E+15</Timestamp><Current dt:dt="r8">0</Current><DateUtc dt:dt="string">2016-07-19T19:58:34Z</DateUtc></FrequencyChange></FrequencyChanges></Clock>\n	TMA Blocker Split Nostril Olfactometer_Pilot 2-48-1	74.912	1.0.0.1473	1	0		-999999	12048	3506901	0	q	67703	3574604	690951554	2.0.10.242	2.0.10.242	07-19-2016	7/19/2016 7:58:34 PM	15:58:34	2.0.10.147	19	GREEN	NULL	NULL	BlockProcA	NULL	Test1	NULL	NULL	NULL	NULL	NULL	NULL	1	1	1	NULL	NULL	NULL	No	NULL	NULL	NULL	NULL	NULL	NULL	11	NULL	NULL	NULL	NULL	Blank	66	9	NULL	NULL	NULL	NULL	TrialProc	NULL	NULL	NULL	NULL	NULL	NULL	NULL	NULL	NULL	NULL	NULL	NULL	NULL	NULL	NULL	NULL	TMA	TrialList	NULL	NULL	NULL	NULL	NULL	NULL	2	2	11	NULL	NULL	NULL	2	NULL	NULL	1	11	11	NULL	Green	532	380	NULL	NULL	NULL	NULL	NULL	NULL	NULL	NULL	NULL	1	NULL	NULL	NULL	ExperimentProc	How intense is the odor?	Experiment	NULL	NULL	NULL	NULL	NULL	NULL	NULL	NULL	?
TMA Blocker Split Nostril Olfactometer_Pilot 2	48	1	<?xml version="1.0"?>\n<Clock xmlns:dt="urn:schemas-microsoft-com:datatypes"><Description dt:dt="string">E-Prime Primary Realtime Clock</Description><StartTime><Timestamp dt:dt="int">0</Timestamp><DateUtc dt:dt="string">2016-07-19T19:58:34Z</DateUtc></StartTime><FrequencyChanges><FrequencyChange><Frequency dt:dt="r8">2793160000</Frequency><Timestamp dt:dt="r8">5.34838117109329E+15</Timestamp><Current dt:dt="r8">0</Current><DateUtc dt:dt="string">2016-07-19T19:58:34Z</DateUtc></FrequencyChange></FrequencyChanges></Clock>\n	TMA Blocker Split Nostril Olfactometer_Pilot 2-48-1	74.912	1.0.0.1473	1	0		-999999	12048	3506901	0	q	67703	3574604	690951554	2.0.10.242	2.0.10.242	07-19-2016	7/19/2016 7:58:34 PM	15:58:34	2.0.10.147	19	GREEN	NULL	NULL	BlockProcA	NULL	Test1	NULL	NULL	NULL	NULL	NULL	NULL	1	1	1	NULL	NULL	NULL	No	NULL	NULL	NULL	NULL	NULL	NULL	11	NULL	NULL	NULL	NULL	Blank	66	9	NULL	NULL	NULL	NULL	TrialProc	NULL	NULL	NULL	NULL	NULL	NULL	NULL	NULL	NULL	NULL	NULL	NULL	NULL	NULL	NULL	NULL	TMA	TrialList	NULL	NULL	NULL	NULL	NULL	NULL	2	2	11	NULL	NULL	NULL	3	NULL	2	NULL	NULL	NULL	NULL	NULL	NULL	NULL	1	2	-999999	13	2107529	0	2	1409	2108938	NULL	NULL	NULL	NULL	SongTrial	NULL	SoundList	NULL	NULL	15	1	11	NULL	NULL	NULL	NULL
TMA Blocker Split Nostril Olfactometer_Pilot 2	48	1	<?xml version="1.0"?>\n<Clock xmlns:dt="urn:schemas-microsoft-com:datatypes"><Description dt:dt="string">E-Prime Primary Realtime Clock</Description><StartTime><Timestamp dt:dt="int">0</Timestamp><DateUtc dt:dt="string">2016-07-19T19:58:34Z</DateUtc></StartTime><FrequencyChanges><FrequencyChange><Frequency dt:dt="r8">2793160000</Frequency><Timestamp dt:dt="r8">5.34838117109329E+15</Timestamp><Current dt:dt="r8">0</Current><DateUtc dt:dt="string">2016-07-19T19:58:34Z</DateUtc></FrequencyChange></FrequencyChanges></Clock>\n	TMA Blocker Split Nostril Olfactometer_Pilot 2-48-1	74.912	1.0.0.1473	1	0		-999999	12048	3506901	0	q	67703	3574604	690951554	2.0.10.242	2.0.10.242	07-19-2016	7/19/2016 7:58:34 PM	15:58:34	2.0.10.147	19	GREEN	NULL	NULL	BlockProcA	NULL	Test1	NULL	NULL	NULL	NULL	NULL	NULL	1	1	1	NULL	NULL	NULL	No	NULL	NULL	NULL	NULL	NULL	NULL	12	NULL	NULL	NULL	NULL	Blank	66	48	NULL	NULL	NULL	NULL	TrialProc	NULL	NULL	NULL	NULL	NULL	NULL	NULL	NULL	NULL	NULL	NULL	NULL	NULL	NULL	NULL	NULL	Nonenol	TrialList	NULL	NULL	NULL	NULL	NULL	NULL	4	2	12	NULL	NULL	NULL	1	NULL	NULL	NULL	NULL	NULL	NULL	NULL	NULL	NULL	NULL	NULL	NULL	NULL	NULL	NULL	NULL	NULL	NULL	NULL	1	25	25	PrepareProc	NULL	Prepare	NULL	NULL	NULL	NULL	NULL	NULL	NULL	NULL	NULL
TMA Blocker Split Nostril Olfactometer_Pilot 2	48	1	<?xml version="1.0"?>\n<Clock xmlns:dt="urn:schemas-microsoft-com:datatypes"><Description dt:dt="string">E-Prime Primary Realtime Clock</Description><StartTime><Timestamp dt:dt="int">0</Timestamp><DateUtc dt:dt="string">2016-07-19T19:58:34Z</DateUtc></StartTime><FrequencyChanges><FrequencyChange><Frequency dt:dt="r8">2793160000</Frequency><Timestamp dt:dt="r8">5.34838117109329E+15</Timestamp><Current dt:dt="r8">0</Current><DateUtc dt:dt="string">2016-07-19T19:58:34Z</DateUtc></FrequencyChange></FrequencyChanges></Clock>\n	TMA Blocker Split Nostril Olfactometer_Pilot 2-48-1	74.912	1.0.0.1473	1	0		-999999	12048	3506901	0	q	67703	3574604	690951554	2.0.10.242	2.0.10.242	07-19-2016	7/19/2016 7:58:34 PM	15:58:34	2.0.10.147	19	GREEN	NULL	NULL	BlockProcA	NULL	Test1	NULL	NULL	NULL	NULL	NULL	NULL	1	1	1	NULL	NULL	NULL	No	NULL	NULL	NULL	NULL	NULL	NULL	12	NULL	NULL	NULL	NULL	Blank	66	48	NULL	NULL	NULL	NULL	TrialProc	NULL	NULL	NULL	NULL	NULL	NULL	NULL	NULL	NULL	NULL	NULL	NULL	NULL	NULL	NULL	NULL	Nonenol	TrialList	NULL	NULL	NULL	NULL	NULL	NULL	4	2	12	NULL	NULL	NULL	2	NULL	NULL	1	12	12	NULL	Green	553	421	NULL	NULL	NULL	NULL	NULL	NULL	NULL	NULL	NULL	1	NULL	NULL	NULL	ExperimentProc	How intense is the odor?	Experiment	NULL	NULL	NULL	NULL	NULL	NULL	NULL	NULL	?
TMA Blocker Split Nostril Olfactometer_Pilot 2	48	1	<?xml version="1.0"?>\n<Clock xmlns:dt="urn:schemas-microsoft-com:datatypes"><Description dt:dt="string">E-Prime Primary Realtime Clock</Description><StartTime><Timestamp dt:dt="int">0</Timestamp><DateUtc dt:dt="string">2016-07-19T19:58:34Z</DateUtc></StartTime><FrequencyChanges><FrequencyChange><Frequency dt:dt="r8">2793160000</Frequency><Timestamp dt:dt="r8">5.34838117109329E+15</Timestamp><Current dt:dt="r8">0</Current><DateUtc dt:dt="string">2016-07-19T19:58:34Z</DateUtc></FrequencyChange></FrequencyChanges></Clock>\n	TMA Blocker Split Nostril Olfactometer_Pilot 2-48-1	74.912	1.0.0.1473	1	0		-999999	12048	3506901	0	q	67703	3574604	690951554	2.0.10.242	2.0.10.242	07-19-2016	7/19/2016 7:58:34 PM	15:58:34	2.0.10.147	19	GREEN	NULL	NULL	BlockProcA	NULL	Test1	NULL	NULL	NULL	NULL	NULL	NULL	1	1	1	NULL	NULL	NULL	No	NULL	NULL	NULL	NULL	NULL	NULL	12	NULL	NULL	NULL	NULL	Blank	66	48	NULL	NULL	NULL	NULL	TrialProc	NULL	NULL	NULL	NULL	NULL	NULL	NULL	NULL	NULL	NULL	NULL	NULL	NULL	NULL	NULL	NULL	Nonenol	TrialList	NULL	NULL	NULL	NULL	NULL	NULL	4	2	12	NULL	NULL	NULL	3	NULL	1	NULL	NULL	NULL	NULL	NULL	NULL	NULL	1	1	-999999	13	2148964	0	1	2445	2151409	NULL	NULL	NULL	NULL	SongTrial	NULL	SoundList	NULL	NULL	9	1	12	NULL	NULL	NULL	NULL
TMA Blocker Split Nostril Olfactometer_Pilot 2	48	1	<?xml version="1.0"?>\n<Clock xmlns:dt="urn:schemas-microsoft-com:datatypes"><Description dt:dt="string">E-Prime Primary Realtime Clock</Description><StartTime><Timestamp dt:dt="int">0</Timestamp><DateUtc dt:dt="string">2016-07-19T19:58:34Z</DateUtc></StartTime><FrequencyChanges><FrequencyChange><Frequency dt:dt="r8">2793160000</Frequency><Timestamp dt:dt="r8">5.34838117109329E+15</Timestamp><Current dt:dt="r8">0</Current><DateUtc dt:dt="string">2016-07-19T19:58:34Z</DateUtc></FrequencyChange></FrequencyChanges></Clock>\n	TMA Blocker Split Nostril Olfactometer_Pilot 2-48-1	74.912	1.0.0.1473	1	0		-999999	12048	3506901	0	q	67703	3574604	690951554	2.0.10.242	2.0.10.242	07-19-2016	7/19/2016 7:58:34 PM	15:58:34	2.0.10.147	19	GREEN	NULL	NULL	BlockProcA	NULL	Test1	NULL	NULL	NULL	NULL	NULL	NULL	1	1	1	NULL	NULL	NULL	No	NULL	NULL	NULL	NULL	NULL	NULL	13	NULL	NULL	NULL	NULL	Nonenol	72	24	NULL	NULL	NULL	NULL	TrialProc	NULL	NULL	NULL	NULL	NULL	NULL	NULL	NULL	NULL	NULL	NULL	NULL	NULL	NULL	NULL	NULL	Blank	TrialList	NULL	NULL	NULL	NULL	NULL	NULL	3	2	13	NULL	NULL	NULL	1	NULL	NULL	NULL	NULL	NULL	NULL	NULL	NULL	NULL	NULL	NULL	NULL	NULL	NULL	NULL	NULL	NULL	NULL	NULL	1	26	26	PrepareProc	NULL	Prepare	NULL	NULL	NULL	NULL	NULL	NULL	NULL	NULL	NULL
TMA Blocker Split Nostril Olfactometer_Pilot 2	48	1	<?xml version="1.0"?>\n<Clock xmlns:dt="urn:schemas-microsoft-com:datatypes"><Description dt:dt="string">E-Prime Primary Realtime Clock</Description><StartTime><Timestamp dt:dt="int">0</Timestamp><DateUtc dt:dt="string">2016-07-19T19:58:34Z</DateUtc></StartTime><FrequencyChanges><FrequencyChange><Frequency dt:dt="r8">2793160000</Frequency><Timestamp dt:dt="r8">5.34838117109329E+15</Timestamp><Current dt:dt="r8">0</Current><DateUtc dt:dt="string">2016-07-19T19:58:34Z</DateUtc></FrequencyChange></FrequencyChanges></Clock>\n	TMA Blocker Split Nostril Olfactometer_Pilot 2-48-1	74.912	1.0.0.1473	1	0		-999999	12048	3506901	0	q	67703	3574604	690951554	2.0.10.242	2.0.10.242	07-19-2016	7/19/2016 7:58:34 PM	15:58:34	2.0.10.147	19	GREEN	NULL	NULL	BlockProcA	NULL	Test1	NULL	NULL	NULL	NULL	NULL	NULL	1	1	1	NULL	NULL	NULL	No	NULL	NULL	NULL	NULL	NULL	NULL	13	NULL	NULL	NULL	NULL	Nonenol	72	24	NULL	NULL	NULL	NULL	TrialProc	NULL	NULL	NULL	NULL	NULL	NULL	NULL	NULL	NULL	NULL	NULL	NULL	NULL	NULL	NULL	NULL	Blank	TrialList	NULL	NULL	NULL	NULL	NULL	NULL	3	2	13	NULL	NULL	NULL	2	NULL	NULL	1	13	13	NULL	Green	539	497	NULL	NULL	NULL	NULL	NULL	NULL	NULL	NULL	NULL	1	NULL	NULL	NULL	ExperimentProc	How intense is the odor?	Experiment	NULL	NULL	NULL	NULL	NULL	NULL	NULL	NULL	?
TMA Blocker Split Nostril Olfactometer_Pilot 2	48	1	<?xml version="1.0"?>\n<Clock xmlns:dt="urn:schemas-microsoft-com:datatypes"><Description dt:dt="string">E-Prime Primary Realtime Clock</Description><StartTime><Timestamp dt:dt="int">0</Timestamp><DateUtc dt:dt="string">2016-07-19T19:58:34Z</DateUtc></StartTime><FrequencyChanges><FrequencyChange><Frequency dt:dt="r8">2793160000</Frequency><Timestamp dt:dt="r8">5.34838117109329E+15</Timestamp><Current dt:dt="r8">0</Current><DateUtc dt:dt="string">2016-07-19T19:58:34Z</DateUtc></FrequencyChange></FrequencyChanges></Clock>\n	TMA Blocker Split Nostril Olfactometer_Pilot 2-48-1	74.912	1.0.0.1473	1	0		-999999	12048	3506901	0	q	67703	3574604	690951554	2.0.10.242	2.0.10.242	07-19-2016	7/19/2016 7:58:34 PM	15:58:34	2.0.10.147	19	GREEN	NULL	NULL	BlockProcA	NULL	Test1	NULL	NULL	NULL	NULL	NULL	NULL	1	1	1	NULL	NULL	NULL	No	NULL	NULL	NULL	NULL	NULL	NULL	13	NULL	NULL	NULL	NULL	Nonenol	72	24	NULL	NULL	NULL	NULL	TrialProc	NULL	NULL	NULL	NULL	NULL	NULL	NULL	NULL	NULL	NULL	NULL	NULL	NULL	NULL	NULL	NULL	Blank	TrialList	NULL	NULL	NULL	NULL	NULL	NULL	3	2	13	NULL	NULL	NULL	3	NULL	1	NULL	NULL	NULL	NULL	NULL	NULL	NULL	1	1	-999999	13	2192229	0	1	1259	2193488	NULL	NULL	NULL	NULL	SongTrial	NULL	SoundList	NULL	NULL	1	1	13	NULL	NULL	NULL	NULL
TMA Blocker Split Nostril Olfactometer_Pilot 2	48	1	<?xml version="1.0"?>\n<Clock xmlns:dt="urn:schemas-microsoft-com:datatypes"><Description dt:dt="string">E-Prime Primary Realtime Clock</Description><StartTime><Timestamp dt:dt="int">0</Timestamp><DateUtc dt:dt="string">2016-07-19T19:58:34Z</DateUtc></StartTime><FrequencyChanges><FrequencyChange><Frequency dt:dt="r8">2793160000</Frequency><Timestamp dt:dt="r8">5.34838117109329E+15</Timestamp><Current dt:dt="r8">0</Current><DateUtc dt:dt="string">2016-07-19T19:58:34Z</DateUtc></FrequencyChange></FrequencyChanges></Clock>\n	TMA Blocker Split Nostril Olfactometer_Pilot 2-48-1	74.912	1.0.0.1473	1	0		-999999	12048	3506901	0	q	67703	3574604	690951554	2.0.10.242	2.0.10.242	07-19-2016	7/19/2016 7:58:34 PM	15:58:34	2.0.10.147	19	GREEN	NULL	NULL	BlockProcA	NULL	Test1	NULL	NULL	NULL	NULL	NULL	NULL	1	1	1	NULL	NULL	NULL	No	NULL	NULL	NULL	NULL	NULL	NULL	14	NULL	NULL	NULL	NULL	Nonenol	72	9	NULL	NULL	NULL	NULL	TrialProc	NULL	NULL	NULL	NULL	NULL	NULL	NULL	NULL	NULL	NULL	NULL	NULL	NULL	NULL	NULL	NULL	TMA	TrialList	NULL	NULL	NULL	NULL	NULL	NULL	8	2	14	NULL	NULL	NULL	1	NULL	NULL	NULL	NULL	NULL	NULL	NULL	NULL	NULL	NULL	NULL	NULL	NULL	NULL	NULL	NULL	NULL	NULL	NULL	1	27	27	PrepareProc	NULL	Prepare	NULL	NULL	NULL	NULL	NULL	NULL	NULL	NULL	NULL
TMA Blocker Split Nostril Olfactometer_Pilot 2	48	1	<?xml version="1.0"?>\n<Clock xmlns:dt="urn:schemas-microsoft-com:datatypes"><Description dt:dt="string">E-Prime Primary Realtime Clock</Description><StartTime><Timestamp dt:dt="int">0</Timestamp><DateUtc dt:dt="string">2016-07-19T19:58:34Z</DateUtc></StartTime><FrequencyChanges><FrequencyChange><Frequency dt:dt="r8">2793160000</Frequency><Timestamp dt:dt="r8">5.34838117109329E+15</Timestamp><Current dt:dt="r8">0</Current><DateUtc dt:dt="string">2016-07-19T19:58:34Z</DateUtc></FrequencyChange></FrequencyChanges></Clock>\n	TMA Blocker Split Nostril Olfactometer_Pilot 2-48-1	74.912	1.0.0.1473	1	0		-999999	12048	3506901	0	q	67703	3574604	690951554	2.0.10.242	2.0.10.242	07-19-2016	7/19/2016 7:58:34 PM	15:58:34	2.0.10.147	19	GREEN	NULL	NULL	BlockProcA	NULL	Test1	NULL	NULL	NULL	NULL	NULL	NULL	1	1	1	NULL	NULL	NULL	No	NULL	NULL	NULL	NULL	NULL	NULL	14	NULL	NULL	NULL	NULL	Nonenol	72	9	NULL	NULL	NULL	NULL	TrialProc	NULL	NULL	NULL	NULL	NULL	NULL	NULL	NULL	NULL	NULL	NULL	NULL	NULL	NULL	NULL	NULL	TMA	TrialList	NULL	NULL	NULL	NULL	NULL	NULL	8	2	14	NULL	NULL	NULL	2	NULL	NULL	1	14	14	NULL	Green	437	365	NULL	NULL	NULL	NULL	NULL	NULL	NULL	NULL	NULL	1	NULL	NULL	NULL	ExperimentProc	How intense is the odor?	Experiment	NULL	NULL	NULL	NULL	NULL	NULL	NULL	NULL	?
TMA Blocker Split Nostril Olfactometer_Pilot 2	48	1	<?xml version="1.0"?>\n<Clock xmlns:dt="urn:schemas-microsoft-com:datatypes"><Description dt:dt="string">E-Prime Primary Realtime Clock</Description><StartTime><Timestamp dt:dt="int">0</Timestamp><DateUtc dt:dt="string">2016-07-19T19:58:34Z</DateUtc></StartTime><FrequencyChanges><FrequencyChange><Frequency dt:dt="r8">2793160000</Frequency><Timestamp dt:dt="r8">5.34838117109329E+15</Timestamp><Current dt:dt="r8">0</Current><DateUtc dt:dt="string">2016-07-19T19:58:34Z</DateUtc></FrequencyChange></FrequencyChanges></Clock>\n	TMA Blocker Split Nostril Olfactometer_Pilot 2-48-1	74.912	1.0.0.1473	1	0		-999999	12048	3506901	0	q	67703	3574604	690951554	2.0.10.242	2.0.10.242	07-19-2016	7/19/2016 7:58:34 PM	15:58:34	2.0.10.147	19	GREEN	NULL	NULL	BlockProcA	NULL	Test1	NULL	NULL	NULL	NULL	NULL	NULL	1	1	1	NULL	NULL	NULL	No	NULL	NULL	NULL	NULL	NULL	NULL	14	NULL	NULL	NULL	NULL	Nonenol	72	9	NULL	NULL	NULL	NULL	TrialProc	NULL	NULL	NULL	NULL	NULL	NULL	NULL	NULL	NULL	NULL	NULL	NULL	NULL	NULL	NULL	NULL	TMA	TrialList	NULL	NULL	NULL	NULL	NULL	NULL	8	2	14	NULL	NULL	NULL	3	NULL	2	NULL	NULL	NULL	NULL	NULL	NULL	NULL	1	2	-999999	13	2233251	0	2	1067	2234318	NULL	NULL	NULL	NULL	SongTrial	NULL	SoundList	NULL	NULL	8	1	14	NULL	NULL	NULL	NULL
TMA Blocker Split Nostril Olfactometer_Pilot 2	48	1	<?xml version="1.0"?>\n<Clock xmlns:dt="urn:schemas-microsoft-com:datatypes"><Description dt:dt="string">E-Prime Primary Realtime Clock</Description><StartTime><Timestamp dt:dt="int">0</Timestamp><DateUtc dt:dt="string">2016-07-19T19:58:34Z</DateUtc></StartTime><FrequencyChanges><FrequencyChange><Frequency dt:dt="r8">2793160000</Frequency><Timestamp dt:dt="r8">5.34838117109329E+15</Timestamp><Current dt:dt="r8">0</Current><DateUtc dt:dt="string">2016-07-19T19:58:34Z</DateUtc></FrequencyChange></FrequencyChanges></Clock>\n	TMA Blocker Split Nostril Olfactometer_Pilot 2-48-1	74.912	1.0.0.1473	1	0		-999999	12048	3506901	0	q	67703	3574604	690951554	2.0.10.242	2.0.10.242	07-19-2016	7/19/2016 7:58:34 PM	15:58:34	2.0.10.147	19	GREEN	NULL	NULL	BlockProcA	NULL	Test1	NULL	NULL	NULL	NULL	NULL	NULL	1	1	1	NULL	NULL	NULL	No	NULL	NULL	NULL	NULL	NULL	NULL	15	NULL	NULL	NULL	NULL	Blank	66	33	NULL	NULL	NULL	NULL	TrialProc	NULL	NULL	NULL	NULL	NULL	NULL	NULL	NULL	NULL	NULL	NULL	NULL	NULL	NULL	NULL	NULL	TMA+Nonenol	TrialList	NULL	NULL	NULL	NULL	NULL	NULL	6	2	15	NULL	NULL	NULL	1	NULL	NULL	NULL	NULL	NULL	NULL	NULL	NULL	NULL	NULL	NULL	NULL	NULL	NULL	NULL	NULL	NULL	NULL	NULL	1	28	28	PrepareProc	NULL	Prepare	NULL	NULL	NULL	NULL	NULL	NULL	NULL	NULL	NULL
TMA Blocker Split Nostril Olfactometer_Pilot 2	48	1	<?xml version="1.0"?>\n<Clock xmlns:dt="urn:schemas-microsoft-com:datatypes"><Description dt:dt="string">E-Prime Primary Realtime Clock</Description><StartTime><Timestamp dt:dt="int">0</Timestamp><DateUtc dt:dt="string">2016-07-19T19:58:34Z</DateUtc></StartTime><FrequencyChanges><FrequencyChange><Frequency dt:dt="r8">2793160000</Frequency><Timestamp dt:dt="r8">5.34838117109329E+15</Timestamp><Current dt:dt="r8">0</Current><DateUtc dt:dt="string">2016-07-19T19:58:34Z</DateUtc></FrequencyChange></FrequencyChanges></Clock>\n	TMA Blocker Split Nostril Olfactometer_Pilot 2-48-1	74.912	1.0.0.1473	1	0		-999999	12048	3506901	0	q	67703	3574604	690951554	2.0.10.242	2.0.10.242	07-19-2016	7/19/2016 7:58:34 PM	15:58:34	2.0.10.147	19	GREEN	NULL	NULL	BlockProcA	NULL	Test1	NULL	NULL	NULL	NULL	NULL	NULL	1	1	1	NULL	NULL	NULL	No	NULL	NULL	NULL	NULL	NULL	NULL	15	NULL	NULL	NULL	NULL	Blank	66	33	NULL	NULL	NULL	NULL	TrialProc	NULL	NULL	NULL	NULL	NULL	NULL	NULL	NULL	NULL	NULL	NULL	NULL	NULL	NULL	NULL	NULL	TMA+Nonenol	TrialList	NULL	NULL	NULL	NULL	NULL	NULL	6	2	15	NULL	NULL	NULL	2	NULL	NULL	1	15	15	NULL	Green	528	491	NULL	NULL	NULL	NULL	NULL	NULL	NULL	NULL	NULL	1	NULL	NULL	NULL	ExperimentProc	How intense is the odor?	Experiment	NULL	NULL	NULL	NULL	NULL	NULL	NULL	NULL	?
TMA Blocker Split Nostril Olfactometer_Pilot 2	48	1	<?xml version="1.0"?>\n<Clock xmlns:dt="urn:schemas-microsoft-com:datatypes"><Description dt:dt="string">E-Prime Primary Realtime Clock</Description><StartTime><Timestamp dt:dt="int">0</Timestamp><DateUtc dt:dt="string">2016-07-19T19:58:34Z</DateUtc></StartTime><FrequencyChanges><FrequencyChange><Frequency dt:dt="r8">2793160000</Frequency><Timestamp dt:dt="r8">5.34838117109329E+15</Timestamp><Current dt:dt="r8">0</Current><DateUtc dt:dt="string">2016-07-19T19:58:34Z</DateUtc></FrequencyChange></FrequencyChanges></Clock>\n	TMA Blocker Split Nostril Olfactometer_Pilot 2-48-1	74.912	1.0.0.1473	1	0		-999999	12048	3506901	0	q	67703	3574604	690951554	2.0.10.242	2.0.10.242	07-19-2016	7/19/2016 7:58:34 PM	15:58:34	2.0.10.147	19	GREEN	NULL	NULL	BlockProcA	NULL	Test1	NULL	NULL	NULL	NULL	NULL	NULL	1	1	1	NULL	NULL	NULL	No	NULL	NULL	NULL	NULL	NULL	NULL	15	NULL	NULL	NULL	NULL	Blank	66	33	NULL	NULL	NULL	NULL	TrialProc	NULL	NULL	NULL	NULL	NULL	NULL	NULL	NULL	NULL	NULL	NULL	NULL	NULL	NULL	NULL	NULL	TMA+Nonenol	TrialList	NULL	NULL	NULL	NULL	NULL	NULL	6	2	15	NULL	NULL	NULL	3	NULL	1	NULL	NULL	NULL	NULL	NULL	NULL	NULL	1	1	-999999	13	2274353	0	1	1012	2275365	NULL	NULL	NULL	NULL	SongTrial	NULL	SoundList	NULL	NULL	10	1	15	NULL	NULL	NULL	NULL
TMA Blocker Split Nostril Olfactometer_Pilot 2	48	1	<?xml version="1.0"?>\n<Clock xmlns:dt="urn:schemas-microsoft-com:datatypes"><Description dt:dt="string">E-Prime Primary Realtime Clock</Description><StartTime><Timestamp dt:dt="int">0</Timestamp><DateUtc dt:dt="string">2016-07-19T19:58:34Z</DateUtc></StartTime><FrequencyChanges><FrequencyChange><Frequency dt:dt="r8">2793160000</Frequency><Timestamp dt:dt="r8">5.34838117109329E+15</Timestamp><Current dt:dt="r8">0</Current><DateUtc dt:dt="string">2016-07-19T19:58:34Z</DateUtc></FrequencyChange></FrequencyChanges></Clock>\n	TMA Blocker Split Nostril Olfactometer_Pilot 2-48-1	74.912	1.0.0.1473	1	0		-999999	12048	3506901	0	q	67703	3574604	690951554	2.0.10.242	2.0.10.242	07-19-2016	7/19/2016 7:58:34 PM	15:58:34	2.0.10.147	19	GREEN	NULL	NULL	BlockProcA	NULL	Test1	NULL	NULL	NULL	NULL	NULL	NULL	1	1	1	NULL	NULL	NULL	No	NULL	NULL	NULL	NULL	NULL	NULL	16	NULL	NULL	NULL	NULL	TMA	3	48	NULL	NULL	NULL	NULL	TrialProc	NULL	NULL	NULL	NULL	NULL	NULL	NULL	NULL	NULL	NULL	NULL	NULL	NULL	NULL	NULL	NULL	Nonenol	TrialList	NULL	NULL	NULL	NULL	NULL	NULL	7	2	16	NULL	NULL	NULL	1	NULL	NULL	NULL	NULL	NULL	NULL	NULL	NULL	NULL	NULL	NULL	NULL	NULL	NULL	NULL	NULL	NULL	NULL	NULL	1	29	29	PrepareProc	NULL	Prepare	NULL	NULL	NULL	NULL	NULL	NULL	NULL	NULL	NULL
