ExperimentName	Subject	Session	Clock.Information	DataFile.Basename	Display.RefreshRate	ExperimentVersion	Group	Menu1.ACC	Menu1.CRESP	Menu1.DurationError	Menu1.OnsetDelay	Menu1.OnsetTime	Menu1.OnsetToOnsetTime	Menu1.RESP	Menu1.RT	Menu1.RTTime	RandomSeed	RuntimeVersion	RuntimeVersionExpected	SessionDate	SessionStartDateTimeUtc	SessionTime	StudioVersion	Block	Antag	Green[Block]	IntensityRatingTraining[Block]	Procedure[Block]	Question[Block]	Running[Block]	ScaleTraining	ScaleTraining.Cycle	ScaleTraining.Sample	SniffingInstructionsList	SniffingInstructionsList.Cycle	SniffingInstructionsList.Sample	Test1	Test1.Cycle	Test1.Sample	Test2	Test2.Cycle	Test2.Sample	TestMode	Train1	Train1.Cycle	Train1.Sample	Train2	Train2.Cycle	Train2.Sample	Trial	CorrectAnswer[Trial]	Descriptor	Green[Trial]	IntensityRatingTraining[Trial]	LeftType	OdorLeft	OdorRight	OdorType	Prepare[Trial]	Prepare.Cycle[Trial]	Prepare.Sample[Trial]	Procedure[Trial]	Question[Trial]	QuizList	QuizList.Cycle	QuizList.Sample	QuizList2	QuizList2.Cycle	QuizList2.Sample	QuizPage.ACC	QuizPage.CRESP	QuizPage.DurationError	QuizPage.OnsetDelay	QuizPage.OnsetTime	QuizPage.OnsetToOnsetTime	QuizPage.RESP	QuizPage.RT	QuizPage.RTTime	RightType	Running[Trial]	TrainList	TrainList.Cycle	TrainList.Sample	TrainList2	TrainList2.Cycle	TrainList2.Sample	TrialList	TrialList.Cycle	TrialList.Sample	TrialList2	TrialList2.Cycle	TrialList2.Sample	SubTrial	Band	CorrectAnswer[SubTrial]	Experiment	Experiment.Cycle	Experiment.Sample	Gender	Green[SubTrial]	IntensityRatingAntag	IntensityRatingFishy	MorF.ACC	MorF.CRESP	MorF.DurationError	MorF.OnsetDelay	MorF.OnsetTime	MorF.OnsetToOnsetTime	MorF.RESP	MorF.RT	MorF.RTTime	OdorAndConcentration	Prepare[SubTrial]	Prepare.Cycle[SubTrial]	Prepare.Sample[SubTrial]	Procedure[SubTrial]	Question[SubTrial]	Running[SubTrial]	SongName	SongTitle	SoundList	SoundList.Cycle	SoundList.Sample	SoundList2	SoundList2.Cycle	SoundList2.Sample	TrialNo
TMA Blocker Split Nostril Olfactometer_Pilot 2	54	1	<?xml version="1.0"?>\n<Clock xmlns:dt="urn:schemas-microsoft-com:datatypes"><Description dt:dt="string">E-Prime Primary Realtime Clock</Description><StartTime><Timestamp dt:dt="int">0</Timestamp><DateUtc dt:dt="string">2016-07-27T15:00:23Z</DateUtc></StartTime><FrequencyChanges><FrequencyChange><Frequency dt:dt="r8">2793160000</Frequency><Timestamp dt:dt="r8">7.229017280322E+15</Timestamp><Current dt:dt="r8">0</Current><DateUtc dt:dt="string">2016-07-27T15:00:23Z</DateUtc></FrequencyChange></FrequencyChanges></Clock>\n	TMA Blocker Split Nostril Olfactometer_Pilot 2-54-1	74.911	1.0.0.1473	1	0		-999999	12035	4091468	0	q	291150	4382618	-554130665	2.0.10.242	2.0.10.242	07-27-2016	7/27/2016 3:00:23 PM	11:00:23	2.0.10.147	1	NULL		407	ScaleTrainingProc	The brigtness of a well-lit room	ScaleTraining	5	2	1	NULL	NULL	NULL	NULL	NULL	NULL	NULL	NULL	NULL	NULL	NULL	NULL	NULL	NULL	NULL	NULL	NULL	NULL	NULL	NULL	NULL	NULL	NULL	NULL	NULL	NULL	NULL	NULL	NULL	NULL	NULL	NULL	NULL	NULL	NULL	NULL	NULL	NULL	NULL	NULL	NULL	NULL	NULL	NULL	NULL	NULL	NULL	NULL	NULL	NULL	NULL	NULL	NULL	NULL	NULL	NULL	NULL	NULL	NULL	NULL	NULL	NULL	NULL	NULL	NULL	NULL	NULL	NULL	NULL	NULL	NULL	NULL	NULL	NULL	NULL	NULL	NULL	NULL	NULL	NULL	NULL	NULL	NULL	NULL	NULL	NULL	NULL	NULL	NULL	NULL	NULL	NULL	NULL	NULL
TMA Blocker Split Nostril Olfactometer_Pilot 2	54	1	<?xml version="1.0"?>\n<Clock xmlns:dt="urn:schemas-microsoft-com:datatypes"><Description dt:dt="string">E-Prime Primary Realtime Clock</Description><StartTime><Timestamp dt:dt="int">0</Timestamp><DateUtc dt:dt="string">2016-07-27T15:00:23Z</DateUtc></StartTime><FrequencyChanges><FrequencyChange><Frequency dt:dt="r8">2793160000</Frequency><Timestamp dt:dt="r8">7.229017280322E+15</Timestamp><Current dt:dt="r8">0</Current><DateUtc dt:dt="string">2016-07-27T15:00:23Z</DateUtc></FrequencyChange></FrequencyChanges></Clock>\n	TMA Blocker Split Nostril Olfactometer_Pilot 2-54-1	74.911	1.0.0.1473	1	0		-999999	12035	4091468	0	q	291150	4382618	-554130665	2.0.10.242	2.0.10.242	07-27-2016	7/27/2016 3:00:23 PM	11:00:23	2.0.10.147	2	NULL		493	ScaleTrainingProc	The warmth of a summer breeze on your face	ScaleTraining	10	2	2	NULL	NULL	NULL	NULL	NULL	NULL	NULL	NULL	NULL	NULL	NULL	NULL	NULL	NULL	NULL	NULL	NULL	NULL	NULL	NULL	NULL	NULL	NULL	NULL	NULL	NULL	NULL	NULL	NULL	NULL	NULL	NULL	NULL	NULL	NULL	NULL	NULL	NULL	NULL	NULL	NULL	NULL	NULL	NULL	NULL	NULL	NULL	NULL	NULL	NULL	NULL	NULL	NULL	NULL	NULL	NULL	NULL	NULL	NULL	NULL	NULL	NULL	NULL	NULL	NULL	NULL	NULL	NULL	NULL	NULL	NULL	NULL	NULL	NULL	NULL	NULL	NULL	NULL	NULL	NULL	NULL	NULL	NULL	NULL	NULL	NULL	NULL	NULL	NULL	NULL	NULL	NULL	NULL	NULL
TMA Blocker Split Nostril Olfactometer_Pilot 2	54	1	<?xml version="1.0"?>\n<Clock xmlns:dt="urn:schemas-microsoft-com:datatypes"><Description dt:dt="string">E-Prime Primary Realtime Clock</Description><StartTime><Timestamp dt:dt="int">0</Timestamp><DateUtc dt:dt="string">2016-07-27T15:00:23Z</DateUtc></StartTime><FrequencyChanges><FrequencyChange><Frequency dt:dt="r8">2793160000</Frequency><Timestamp dt:dt="r8">7.229017280322E+15</Timestamp><Current dt:dt="r8">0</Current><DateUtc dt:dt="string">2016-07-27T15:00:23Z</DateUtc></FrequencyChange></FrequencyChanges></Clock>\n	TMA Blocker Split Nostril Olfactometer_Pilot 2-54-1	74.911	1.0.0.1473	1	0		-999999	12035	4091468	0	q	291150	4382618	-554130665	2.0.10.242	2.0.10.242	07-27-2016	7/27/2016 3:00:23 PM	11:00:23	2.0.10.147	3	NULL		199	ScaleTrainingProc	The sweetness of cotton candy	ScaleTraining	12	2	3	NULL	NULL	NULL	NULL	NULL	NULL	NULL	NULL	NULL	NULL	NULL	NULL	NULL	NULL	NULL	NULL	NULL	NULL	NULL	NULL	NULL	NULL	NULL	NULL	NULL	NULL	NULL	NULL	NULL	NULL	NULL	NULL	NULL	NULL	NULL	NULL	NULL	NULL	NULL	NULL	NULL	NULL	NULL	NULL	NULL	NULL	NULL	NULL	NULL	NULL	NULL	NULL	NULL	NULL	NULL	NULL	NULL	NULL	NULL	NULL	NULL	NULL	NULL	NULL	NULL	NULL	NULL	NULL	NULL	NULL	NULL	NULL	NULL	NULL	NULL	NULL	NULL	NULL	NULL	NULL	NULL	NULL	NULL	NULL	NULL	NULL	NULL	NULL	NULL	NULL	NULL	NULL	NULL	NULL
TMA Blocker Split Nostril Olfactometer_Pilot 2	54	1	<?xml version="1.0"?>\n<Clock xmlns:dt="urn:schemas-microsoft-com:datatypes"><Description dt:dt="string">E-Prime Primary Realtime Clock</Description><StartTime><Timestamp dt:dt="int">0</Timestamp><DateUtc dt:dt="string">2016-07-27T15:00:23Z</DateUtc></StartTime><FrequencyChanges><FrequencyChange><Frequency dt:dt="r8">2793160000</Frequency><Timestamp dt:dt="r8">7.229017280322E+15</Timestamp><Current dt:dt="r8">0</Current><DateUtc dt:dt="string">2016-07-27T15:00:23Z</DateUtc></FrequencyChange></FrequencyChanges></Clock>\n	TMA Blocker Split Nostril Olfactometer_Pilot 2-54-1	74.911	1.0.0.1473	1	0		-999999	12035	4091468	0	q	291150	4382618	-554130665	2.0.10.242	2.0.10.242	07-27-2016	7/27/2016 3:00:23 PM	11:00:23	2.0.10.147	4	NULL		547	ScaleTrainingProc	The brightness of a dimly-lit room	ScaleTraining	11	2	4	NULL	NULL	NULL	NULL	NULL	NULL	NULL	NULL	NULL	NULL	NULL	NULL	NULL	NULL	NULL	NULL	NULL	NULL	NULL	NULL	NULL	NULL	NULL	NULL	NULL	NULL	NULL	NULL	NULL	NULL	NULL	NULL	NULL	NULL	NULL	NULL	NULL	NULL	NULL	NULL	NULL	NULL	NULL	NULL	NULL	NULL	NULL	NULL	NULL	NULL	NULL	NULL	NULL	NULL	NULL	NULL	NULL	NULL	NULL	NULL	NULL	NULL	NULL	NULL	NULL	NULL	NULL	NULL	NULL	NULL	NULL	NULL	NULL	NULL	NULL	NULL	NULL	NULL	NULL	NULL	NULL	NULL	NULL	NULL	NULL	NULL	NULL	NULL	NULL	NULL	NULL	NULL	NULL	NULL
TMA Blocker Split Nostril Olfactometer_Pilot 2	54	1	<?xml version="1.0"?>\n<Clock xmlns:dt="urn:schemas-microsoft-com:datatypes"><Description dt:dt="string">E-Prime Primary Realtime Clock</Description><StartTime><Timestamp dt:dt="int">0</Timestamp><DateUtc dt:dt="string">2016-07-27T15:00:23Z</DateUtc></StartTime><FrequencyChanges><FrequencyChange><Frequency dt:dt="r8">2793160000</Frequency><Timestamp dt:dt="r8">7.229017280322E+15</Timestamp><Current dt:dt="r8">0</Current><DateUtc dt:dt="string">2016-07-27T15:00:23Z</DateUtc></FrequencyChange></FrequencyChanges></Clock>\n	TMA Blocker Split Nostril Olfactometer_Pilot 2-54-1	74.911	1.0.0.1473	1	0		-999999	12035	4091468	0	q	291150	4382618	-554130665	2.0.10.242	2.0.10.242	07-27-2016	7/27/2016 3:00:23 PM	11:00:23	2.0.10.147	5	NULL		114	ScaleTrainingProc	The strongest odor you have ever smelled	ScaleTraining	14	2	5	NULL	NULL	NULL	NULL	NULL	NULL	NULL	NULL	NULL	NULL	NULL	NULL	NULL	NULL	NULL	NULL	NULL	NULL	NULL	NULL	NULL	NULL	NULL	NULL	NULL	NULL	NULL	NULL	NULL	NULL	NULL	NULL	NULL	NULL	NULL	NULL	NULL	NULL	NULL	NULL	NULL	NULL	NULL	NULL	NULL	NULL	NULL	NULL	NULL	NULL	NULL	NULL	NULL	NULL	NULL	NULL	NULL	NULL	NULL	NULL	NULL	NULL	NULL	NULL	NULL	NULL	NULL	NULL	NULL	NULL	NULL	NULL	NULL	NULL	NULL	NULL	NULL	NULL	NULL	NULL	NULL	NULL	NULL	NULL	NULL	NULL	NULL	NULL	NULL	NULL	NULL	NULL	NULL	NULL
TMA Blocker Split Nostril Olfactometer_Pilot 2	54	1	<?xml version="1.0"?>\n<Clock xmlns:dt="urn:schemas-microsoft-com:datatypes"><Description dt:dt="string">E-Prime Primary Realtime Clock</Description><StartTime><Timestamp dt:dt="int">0</Timestamp><DateUtc dt:dt="string">2016-07-27T15:00:23Z</DateUtc></StartTime><FrequencyChanges><FrequencyChange><Frequency dt:dt="r8">2793160000</Frequency><Timestamp dt:dt="r8">7.229017280322E+15</Timestamp><Current dt:dt="r8">0</Current><DateUtc dt:dt="string">2016-07-27T15:00:23Z</DateUtc></FrequencyChange></FrequencyChanges></Clock>\n	TMA Blocker Split Nostril Olfactometer_Pilot 2-54-1	74.911	1.0.0.1473	1	0		-999999	12035	4091468	0	q	291150	4382618	-554130665	2.0.10.242	2.0.10.242	07-27-2016	7/27/2016 3:00:23 PM	11:00:23	2.0.10.147	6	NULL		244	ScaleTrainingProc	The heat from dipping your hand in scalding hot water	ScaleTraining	3	2	6	NULL	NULL	NULL	NULL	NULL	NULL	NULL	NULL	NULL	NULL	NULL	NULL	NULL	NULL	NULL	NULL	NULL	NULL	NULL	NULL	NULL	NULL	NULL	NULL	NULL	NULL	NULL	NULL	NULL	NULL	NULL	NULL	NULL	NULL	NULL	NULL	NULL	NULL	NULL	NULL	NULL	NULL	NULL	NULL	NULL	NULL	NULL	NULL	NULL	NULL	NULL	NULL	NULL	NULL	NULL	NULL	NULL	NULL	NULL	NULL	NULL	NULL	NULL	NULL	NULL	NULL	NULL	NULL	NULL	NULL	NULL	NULL	NULL	NULL	NULL	NULL	NULL	NULL	NULL	NULL	NULL	NULL	NULL	NULL	NULL	NULL	NULL	NULL	NULL	NULL	NULL	NULL	NULL	NULL
TMA Blocker Split Nostril Olfactometer_Pilot 2	54	1	<?xml version="1.0"?>\n<Clock xmlns:dt="urn:schemas-microsoft-com:datatypes"><Description dt:dt="string">E-Prime Primary Realtime Clock</Description><StartTime><Timestamp dt:dt="int">0</Timestamp><DateUtc dt:dt="string">2016-07-27T15:00:23Z</DateUtc></StartTime><FrequencyChanges><FrequencyChange><Frequency dt:dt="r8">2793160000</Frequency><Timestamp dt:dt="r8">7.229017280322E+15</Timestamp><Current dt:dt="r8">0</Current><DateUtc dt:dt="string">2016-07-27T15:00:23Z</DateUtc></FrequencyChange></FrequencyChanges></Clock>\n	TMA Blocker Split Nostril Olfactometer_Pilot 2-54-1	74.911	1.0.0.1473	1	0		-999999	12035	4091468	0	q	291150	4382618	-554130665	2.0.10.242	2.0.10.242	07-27-2016	7/27/2016 3:00:23 PM	11:00:23	2.0.10.147	7	NULL		323	ScaleTrainingProc	The coolness from a peppermint candy	ScaleTraining	9	2	7	NULL	NULL	NULL	NULL	NULL	NULL	NULL	NULL	NULL	NULL	NULL	NULL	NULL	NULL	NULL	NULL	NULL	NULL	NULL	NULL	NULL	NULL	NULL	NULL	NULL	NULL	NULL	NULL	NULL	NULL	NULL	NULL	NULL	NULL	NULL	NULL	NULL	NULL	NULL	NULL	NULL	NULL	NULL	NULL	NULL	NULL	NULL	NULL	NULL	NULL	NULL	NULL	NULL	NULL	NULL	NULL	NULL	NULL	NULL	NULL	NULL	NULL	NULL	NULL	NULL	NULL	NULL	NULL	NULL	NULL	NULL	NULL	NULL	NULL	NULL	NULL	NULL	NULL	NULL	NULL	NULL	NULL	NULL	NULL	NULL	NULL	NULL	NULL	NULL	NULL	NULL	NULL	NULL	NULL
TMA Blocker Split Nostril Olfactometer_Pilot 2	54	1	<?xml version="1.0"?>\n<Clock xmlns:dt="urn:schemas-microsoft-com:datatypes"><Description dt:dt="string">E-Prime Primary Realtime Clock</Description><StartTime><Timestamp dt:dt="int">0</Timestamp><DateUtc dt:dt="string">2016-07-27T15:00:23Z</DateUtc></StartTime><FrequencyChanges><FrequencyChange><Frequency dt:dt="r8">2793160000</Frequency><Timestamp dt:dt="r8">7.229017280322E+15</Timestamp><Current dt:dt="r8">0</Current><DateUtc dt:dt="string">2016-07-27T15:00:23Z</DateUtc></FrequencyChange></FrequencyChanges></Clock>\n	TMA Blocker Split Nostril Olfactometer_Pilot 2-54-1	74.911	1.0.0.1473	1	0		-999999	12035	4091468	0	q	291150	4382618	-554130665	2.0.10.242	2.0.10.242	07-27-2016	7/27/2016 3:00:23 PM	11:00:23	2.0.10.147	8	NULL		111	ScaleTrainingProc	The pain from biting your tongue	ScaleTraining	4	2	8	NULL	NULL	NULL	NULL	NULL	NULL	NULL	NULL	NULL	NULL	NULL	NULL	NULL	NULL	NULL	NULL	NULL	NULL	NULL	NULL	NULL	NULL	NULL	NULL	NULL	NULL	NULL	NULL	NULL	NULL	NULL	NULL	NULL	NULL	NULL	NULL	NULL	NULL	NULL	NULL	NULL	NULL	NULL	NULL	NULL	NULL	NULL	NULL	NULL	NULL	NULL	NULL	NULL	NULL	NULL	NULL	NULL	NULL	NULL	NULL	NULL	NULL	NULL	NULL	NULL	NULL	NULL	NULL	NULL	NULL	NULL	NULL	NULL	NULL	NULL	NULL	NULL	NULL	NULL	NULL	NULL	NULL	NULL	NULL	NULL	NULL	NULL	NULL	NULL	NULL	NULL	NULL	NULL	NULL
TMA Blocker Split Nostril Olfactometer_Pilot 2	54	1	<?xml version="1.0"?>\n<Clock xmlns:dt="urn:schemas-microsoft-com:datatypes"><Description dt:dt="string">E-Prime Primary Realtime Clock</Description><StartTime><Timestamp dt:dt="int">0</Timestamp><DateUtc dt:dt="string">2016-07-27T15:00:23Z</DateUtc></StartTime><FrequencyChanges><FrequencyChange><Frequency dt:dt="r8">2793160000</Frequency><Timestamp dt:dt="r8">7.229017280322E+15</Timestamp><Current dt:dt="r8">0</Current><DateUtc dt:dt="string">2016-07-27T15:00:23Z</DateUtc></FrequencyChange></FrequencyChanges></Clock>\n	TMA Blocker Split Nostril Olfactometer_Pilot 2-54-1	74.911	1.0.0.1473	1	0		-999999	12035	4091468	0	q	291150	4382618	-554130665	2.0.10.242	2.0.10.242	07-27-2016	7/27/2016 3:00:23 PM	11:00:23	2.0.10.147	9	NULL		134	ScaleTrainingProc	The loudest sound you have ever heard	ScaleTraining	2	2	9	NULL	NULL	NULL	NULL	NULL	NULL	NULL	NULL	NULL	NULL	NULL	NULL	NULL	NULL	NULL	NULL	NULL	NULL	NULL	NULL	NULL	NULL	NULL	NULL	NULL	NULL	NULL	NULL	NULL	NULL	NULL	NULL	NULL	NULL	NULL	NULL	NULL	NULL	NULL	NULL	NULL	NULL	NULL	NULL	NULL	NULL	NULL	NULL	NULL	NULL	NULL	NULL	NULL	NULL	NULL	NULL	NULL	NULL	NULL	NULL	NULL	NULL	NULL	NULL	NULL	NULL	NULL	NULL	NULL	NULL	NULL	NULL	NULL	NULL	NULL	NULL	NULL	NULL	NULL	NULL	NULL	NULL	NULL	NULL	NULL	NULL	NULL	NULL	NULL	NULL	NULL	NULL	NULL	NULL
TMA Blocker Split Nostril Olfactometer_Pilot 2	54	1	<?xml version="1.0"?>\n<Clock xmlns:dt="urn:schemas-microsoft-com:datatypes"><Description dt:dt="string">E-Prime Primary Realtime Clock</Description><StartTime><Timestamp dt:dt="int">0</Timestamp><DateUtc dt:dt="string">2016-07-27T15:00:23Z</DateUtc></StartTime><FrequencyChanges><FrequencyChange><Frequency dt:dt="r8">2793160000</Frequency><Timestamp dt:dt="r8">7.229017280322E+15</Timestamp><Current dt:dt="r8">0</Current><DateUtc dt:dt="string">2016-07-27T15:00:23Z</DateUtc></FrequencyChange></FrequencyChanges></Clock>\n	TMA Blocker Split Nostril Olfactometer_Pilot 2-54-1	74.911	1.0.0.1473	1	0		-999999	12035	4091468	0	q	291150	4382618	-554130665	2.0.10.242	2.0.10.242	07-27-2016	7/27/2016 3:00:23 PM	11:00:23	2.0.10.147	10	NULL		117	ScaleTrainingProc	The brightest light you have ever seen	ScaleTraining	1	2	10	NULL	NULL	NULL	NULL	NULL	NULL	NULL	NULL	NULL	NULL	NULL	NULL	NULL	NULL	NULL	NULL	NULL	NULL	NULL	NULL	NULL	NULL	NULL	NULL	NULL	NULL	NULL	NULL	NULL	NULL	NULL	NULL	NULL	NULL	NULL	NULL	NULL	NULL	NULL	NULL	NULL	NULL	NULL	NULL	NULL	NULL	NULL	NULL	NULL	NULL	NULL	NULL	NULL	NULL	NULL	NULL	NULL	NULL	NULL	NULL	NULL	NULL	NULL	NULL	NULL	NULL	NULL	NULL	NULL	NULL	NULL	NULL	NULL	NULL	NULL	NULL	NULL	NULL	NULL	NULL	NULL	NULL	NULL	NULL	NULL	NULL	NULL	NULL	NULL	NULL	NULL	NULL	NULL	NULL
TMA Blocker Split Nostril Olfactometer_Pilot 2	54	1	<?xml version="1.0"?>\n<Clock xmlns:dt="urn:schemas-microsoft-com:datatypes"><Description dt:dt="string">E-Prime Primary Realtime Clock</Description><StartTime><Timestamp dt:dt="int">0</Timestamp><DateUtc dt:dt="string">2016-07-27T15:00:23Z</DateUtc></StartTime><FrequencyChanges><FrequencyChange><Frequency dt:dt="r8">2793160000</Frequency><Timestamp dt:dt="r8">7.229017280322E+15</Timestamp><Current dt:dt="r8">0</Current><DateUtc dt:dt="string">2016-07-27T15:00:23Z</DateUtc></FrequencyChange></FrequencyChanges></Clock>\n	TMA Blocker Split Nostril Olfactometer_Pilot 2-54-1	74.911	1.0.0.1473	1	0		-999999	12035	4091468	0	q	291150	4382618	-554130665	2.0.10.242	2.0.10.242	07-27-2016	7/27/2016 3:00:23 PM	11:00:23	2.0.10.147	11	NULL		360	ScaleTrainingProc	The loudness of a conversation	ScaleTraining	7	2	11	NULL	NULL	NULL	NULL	NULL	NULL	NULL	NULL	NULL	NULL	NULL	NULL	NULL	NULL	NULL	NULL	NULL	NULL	NULL	NULL	NULL	NULL	NULL	NULL	NULL	NULL	NULL	NULL	NULL	NULL	NULL	NULL	NULL	NULL	NULL	NULL	NULL	NULL	NULL	NULL	NULL	NULL	NULL	NULL	NULL	NULL	NULL	NULL	NULL	NULL	NULL	NULL	NULL	NULL	NULL	NULL	NULL	NULL	NULL	NULL	NULL	NULL	NULL	NULL	NULL	NULL	NULL	NULL	NULL	NULL	NULL	NULL	NULL	NULL	NULL	NULL	NULL	NULL	NULL	NULL	NULL	NULL	NULL	NULL	NULL	NULL	NULL	NULL	NULL	NULL	NULL	NULL	NULL	NULL
TMA Blocker Split Nostril Olfactometer_Pilot 2	54	1	<?xml version="1.0"?>\n<Clock xmlns:dt="urn:schemas-microsoft-com:datatypes"><Description dt:dt="string">E-Prime Primary Realtime Clock</Description><StartTime><Timestamp dt:dt="int">0</Timestamp><DateUtc dt:dt="string">2016-07-27T15:00:23Z</DateUtc></StartTime><FrequencyChanges><FrequencyChange><Frequency dt:dt="r8">2793160000</Frequency><Timestamp dt:dt="r8">7.229017280322E+15</Timestamp><Current dt:dt="r8">0</Current><DateUtc dt:dt="string">2016-07-27T15:00:23Z</DateUtc></FrequencyChange></FrequencyChanges></Clock>\n	TMA Blocker Split Nostril Olfactometer_Pilot 2-54-1	74.911	1.0.0.1473	1	0		-999999	12035	4091468	0	q	291150	4382618	-554130665	2.0.10.242	2.0.10.242	07-27-2016	7/27/2016 3:00:23 PM	11:00:23	2.0.10.147	12	NULL		495	scaleTrainingProc	The sourness of a lemon	ScaleTraining	15	2	12	NULL	NULL	NULL	NULL	NULL	NULL	NULL	NULL	NULL	NULL	NULL	NULL	NULL	NULL	NULL	NULL	NULL	NULL	NULL	NULL	NULL	NULL	NULL	NULL	NULL	NULL	NULL	NULL	NULL	NULL	NULL	NULL	NULL	NULL	NULL	NULL	NULL	NULL	NULL	NULL	NULL	NULL	NULL	NULL	NULL	NULL	NULL	NULL	NULL	NULL	NULL	NULL	NULL	NULL	NULL	NULL	NULL	NULL	NULL	NULL	NULL	NULL	NULL	NULL	NULL	NULL	NULL	NULL	NULL	NULL	NULL	NULL	NULL	NULL	NULL	NULL	NULL	NULL	NULL	NULL	NULL	NULL	NULL	NULL	NULL	NULL	NULL	NULL	NULL	NULL	NULL	NULL	NULL	NULL
TMA Blocker Split Nostril Olfactometer_Pilot 2	54	1	<?xml version="1.0"?>\n<Clock xmlns:dt="urn:schemas-microsoft-com:datatypes"><Description dt:dt="string">E-Prime Primary Realtime Clock</Description><StartTime><Timestamp dt:dt="int">0</Timestamp><DateUtc dt:dt="string">2016-07-27T15:00:23Z</DateUtc></StartTime><FrequencyChanges><FrequencyChange><Frequency dt:dt="r8">2793160000</Frequency><Timestamp dt:dt="r8">7.229017280322E+15</Timestamp><Current dt:dt="r8">0</Current><DateUtc dt:dt="string">2016-07-27T15:00:23Z</DateUtc></FrequencyChange></FrequencyChanges></Clock>\n	TMA Blocker Split Nostril Olfactometer_Pilot 2-54-1	74.911	1.0.0.1473	1	0		-999999	12035	4091468	0	q	291150	4382618	-554130665	2.0.10.242	2.0.10.242	07-27-2016	7/27/2016 3:00:23 PM	11:00:23	2.0.10.147	13	NULL		549	ScaleTrainingProc	The loudness of a whisper	ScaleTraining	8	2	13	NULL	NULL	NULL	NULL	NULL	NULL	NULL	NULL	NULL	NULL	NULL	NULL	NULL	NULL	NULL	NULL	NULL	NULL	NULL	NULL	NULL	NULL	NULL	NULL	NULL	NULL	NULL	NULL	NULL	NULL	NULL	NULL	NULL	NULL	NULL	NULL	NULL	NULL	NULL	NULL	NULL	NULL	NULL	NULL	NULL	NULL	NULL	NULL	NULL	NULL	NULL	NULL	NULL	NULL	NULL	NULL	NULL	NULL	NULL	NULL	NULL	NULL	NULL	NULL	NULL	NULL	NULL	NULL	NULL	NULL	NULL	NULL	NULL	NULL	NULL	NULL	NULL	NULL	NULL	NULL	NULL	NULL	NULL	NULL	NULL	NULL	NULL	NULL	NULL	NULL	NULL	NULL	NULL	NULL
TMA Blocker Split Nostril Olfactometer_Pilot 2	54	1	<?xml version="1.0"?>\n<Clock xmlns:dt="urn:schemas-microsoft-com:datatypes"><Description dt:dt="string">E-Prime Primary Realtime Clock</Description><StartTime><Timestamp dt:dt="int">0</Timestamp><DateUtc dt:dt="string">2016-07-27T15:00:23Z</DateUtc></StartTime><FrequencyChanges><FrequencyChange><Frequency dt:dt="r8">2793160000</Frequency><Timestamp dt:dt="r8">7.229017280322E+15</Timestamp><Current dt:dt="r8">0</Current><DateUtc dt:dt="string">2016-07-27T15:00:23Z</DateUtc></FrequencyChange></FrequencyChanges></Clock>\n	TMA Blocker Split Nostril Olfactometer_Pilot 2-54-1	74.911	1.0.0.1473	1	0		-999999	12035	4091468	0	q	291150	4382618	-554130665	2.0.10.242	2.0.10.242	07-27-2016	7/27/2016 3:00:23 PM	11:00:23	2.0.10.147	14	NULL		499	ScaleTrainingProc	The strength of a firm handshake	ScaleTraining	6	2	14	NULL	NULL	NULL	NULL	NULL	NULL	NULL	NULL	NULL	NULL	NULL	NULL	NULL	NULL	NULL	NULL	NULL	NULL	NULL	NULL	NULL	NULL	NULL	NULL	NULL	NULL	NULL	NULL	NULL	NULL	NULL	NULL	NULL	NULL	NULL	NULL	NULL	NULL	NULL	NULL	NULL	NULL	NULL	NULL	NULL	NULL	NULL	NULL	NULL	NULL	NULL	NULL	NULL	NULL	NULL	NULL	NULL	NULL	NULL	NULL	NULL	NULL	NULL	NULL	NULL	NULL	NULL	NULL	NULL	NULL	NULL	NULL	NULL	NULL	NULL	NULL	NULL	NULL	NULL	NULL	NULL	NULL	NULL	NULL	NULL	NULL	NULL	NULL	NULL	NULL	NULL	NULL	NULL	NULL
TMA Blocker Split Nostril Olfactometer_Pilot 2	54	1	<?xml version="1.0"?>\n<Clock xmlns:dt="urn:schemas-microsoft-com:datatypes"><Description dt:dt="string">E-Prime Primary Realtime Clock</Description><StartTime><Timestamp dt:dt="int">0</Timestamp><DateUtc dt:dt="string">2016-07-27T15:00:23Z</DateUtc></StartTime><FrequencyChanges><FrequencyChange><Frequency dt:dt="r8">2793160000</Frequency><Timestamp dt:dt="r8">7.229017280322E+15</Timestamp><Current dt:dt="r8">0</Current><DateUtc dt:dt="string">2016-07-27T15:00:23Z</DateUtc></FrequencyChange></FrequencyChanges></Clock>\n	TMA Blocker Split Nostril Olfactometer_Pilot 2-54-1	74.911	1.0.0.1473	1	0		-999999	12035	4091468	0	q	291150	4382618	-554130665	2.0.10.242	2.0.10.242	07-27-2016	7/27/2016 3:00:23 PM	11:00:23	2.0.10.147	15	NULL		516	ScaleTrainingProc	The strength of the odor (intensity) of a rose	ScaleTraining	13	2	15	NULL	NULL	NULL	NULL	NULL	NULL	NULL	NULL	NULL	NULL	NULL	NULL	NULL	NULL	NULL	NULL	NULL	NULL	NULL	NULL	NULL	NULL	NULL	NULL	NULL	NULL	NULL	NULL	NULL	NULL	NULL	NULL	NULL	NULL	NULL	NULL	NULL	NULL	NULL	NULL	NULL	NULL	NULL	NULL	NULL	NULL	NULL	NULL	NULL	NULL	NULL	NULL	NULL	NULL	NULL	NULL	NULL	NULL	NULL	NULL	NULL	NULL	NULL	NULL	NULL	NULL	NULL	NULL	NULL	NULL	NULL	NULL	NULL	NULL	NULL	NULL	NULL	NULL	NULL	NULL	NULL	NULL	NULL	NULL	NULL	NULL	NULL	NULL	NULL	NULL	NULL	NULL	NULL	NULL
TMA Blocker Split Nostril Olfactometer_Pilot 2	54	1	<?xml version="1.0"?>\n<Clock xmlns:dt="urn:schemas-microsoft-com:datatypes"><Description dt:dt="string">E-Prime Primary Realtime Clock</Description><StartTime><Timestamp dt:dt="int">0</Timestamp><DateUtc dt:dt="string">2016-07-27T15:00:23Z</DateUtc></StartTime><FrequencyChanges><FrequencyChange><Frequency dt:dt="r8">2793160000</Frequency><Timestamp dt:dt="r8">7.229017280322E+15</Timestamp><Current dt:dt="r8">0</Current><DateUtc dt:dt="string">2016-07-27T15:00:23Z</DateUtc></FrequencyChange></FrequencyChanges></Clock>\n	TMA Blocker Split Nostril Olfactometer_Pilot 2-54-1	74.911	1.0.0.1473	1	0		-999999	12035	4091468	0	q	291150	4382618	-554130665	2.0.10.242	2.0.10.242	07-27-2016	7/27/2016 3:00:23 PM	11:00:23	2.0.10.147	16	NULL		NULL	SniffingInstructionsProc	NULL	SniffingInstructionsList	NULL	NULL	NULL	1	1	1	NULL	NULL	NULL	NULL	NULL	NULL	NULL	NULL	NULL	NULL	NULL	NULL	NULL	1	NULL	NULL		NULL	NULL	NULL	NULL	NULL	1	1	1	PrepareProc	NULL	NULL	NULL	NULL	NULL	NULL	NULL	NULL	NULL	NULL	NULL	NULL	NULL	NULL	NULL	NULL	NULL	Prepare	NULL	NULL	NULL	NULL	NULL	NULL	NULL	NULL	NULL	NULL	NULL	NULL	NULL	NULL	NULL	NULL	NULL	NULL	NULL	NULL	NULL	NULL	NULL	NULL	NULL	NULL	NULL	NULL	NULL	NULL	NULL	NULL	NULL	NULL	NULL	NULL	NULL	NULL	NULL	NULL	NULL	NULL	NULL	NULL	NULL	NULL	NULL
TMA Blocker Split Nostril Olfactometer_Pilot 2	54	1	<?xml version="1.0"?>\n<Clock xmlns:dt="urn:schemas-microsoft-com:datatypes"><Description dt:dt="string">E-Prime Primary Realtime Clock</Description><StartTime><Timestamp dt:dt="int">0</Timestamp><DateUtc dt:dt="string">2016-07-27T15:00:23Z</DateUtc></StartTime><FrequencyChanges><FrequencyChange><Frequency dt:dt="r8">2793160000</Frequency><Timestamp dt:dt="r8">7.229017280322E+15</Timestamp><Current dt:dt="r8">0</Current><DateUtc dt:dt="string">2016-07-27T15:00:23Z</DateUtc></FrequencyChange></FrequencyChanges></Clock>\n	TMA Blocker Split Nostril Olfactometer_Pilot 2-54-1	74.911	1.0.0.1473	1	0		-999999	12035	4091468	0	q	291150	4382618	-554130665	2.0.10.242	2.0.10.242	07-27-2016	7/27/2016 3:00:23 PM	11:00:23	2.0.10.147	17	Fruitloops	NULL	NULL	TestProcB	NULL	Train2	NULL	NULL	NULL	NULL	NULL	NULL	NULL	NULL	NULL	NULL	NULL	NULL	Yes	NULL	NULL	NULL	1	1	1	1	NULL	Fishy	Green	481	NULL	3	24	NULL	NULL	NULL	NULL	training	Strength of the Odor (How fishy is it?)	NULL	NULL	NULL	NULL	NULL	NULL	NULL	NULL	NULL	NULL	NULL	NULL	NULL	NULL	NULL	NULL	TrainList2	NULL	NULL	NULL	1	1	1	NULL	NULL	NULL	NULL	NULL	NULL	1	NULL	NULL	NULL	NULL	NULL	NULL	Green	NULL	NULL	NULL	NULL	NULL	NULL	NULL	NULL	NULL	NULL	NULL	NULL	1	2	2	PrepareProc	Strength of the Odor (How fishy is it?)	Prepare	NULL	NULL	NULL	NULL	NULL	NULL	NULL	NULL	NULL
TMA Blocker Split Nostril Olfactometer_Pilot 2	54	1	<?xml version="1.0"?>\n<Clock xmlns:dt="urn:schemas-microsoft-com:datatypes"><Description dt:dt="string">E-Prime Primary Realtime Clock</Description><StartTime><Timestamp dt:dt="int">0</Timestamp><DateUtc dt:dt="string">2016-07-27T15:00:23Z</DateUtc></StartTime><FrequencyChanges><FrequencyChange><Frequency dt:dt="r8">2793160000</Frequency><Timestamp dt:dt="r8">7.229017280322E+15</Timestamp><Current dt:dt="r8">0</Current><DateUtc dt:dt="string">2016-07-27T15:00:23Z</DateUtc></FrequencyChange></FrequencyChanges></Clock>\n	TMA Blocker Split Nostril Olfactometer_Pilot 2-54-1	74.911	1.0.0.1473	1	0		-999999	12035	4091468	0	q	291150	4382618	-554130665	2.0.10.242	2.0.10.242	07-27-2016	7/27/2016 3:00:23 PM	11:00:23	2.0.10.147	17	Fruitloops	NULL	NULL	TestProcB	NULL	Train2	NULL	NULL	NULL	NULL	NULL	NULL	NULL	NULL	NULL	NULL	NULL	NULL	Yes	NULL	NULL	NULL	1	1	1	2	NULL	Fruit Loop	Green	573	NULL	192	24	NULL	NULL	NULL	NULL	training	Strength of the Odor (How fruitloops is it?)	NULL	NULL	NULL	NULL	NULL	NULL	NULL	NULL	NULL	NULL	NULL	NULL	NULL	NULL	NULL	NULL	TrainList2	NULL	NULL	NULL	2	1	2	NULL	NULL	NULL	NULL	NULL	NULL	1	NULL	NULL	NULL	NULL	NULL	NULL	Green	NULL	NULL	NULL	NULL	NULL	NULL	NULL	NULL	NULL	NULL	NULL	NULL	1	3	3	PrepareProc	Strength of the Odor (How fruitloops is it?)	Prepare	NULL	NULL	NULL	NULL	NULL	NULL	NULL	NULL	NULL
TMA Blocker Split Nostril Olfactometer_Pilot 2	54	1	<?xml version="1.0"?>\n<Clock xmlns:dt="urn:schemas-microsoft-com:datatypes"><Description dt:dt="string">E-Prime Primary Realtime Clock</Description><StartTime><Timestamp dt:dt="int">0</Timestamp><DateUtc dt:dt="string">2016-07-27T15:00:23Z</DateUtc></StartTime><FrequencyChanges><FrequencyChange><Frequency dt:dt="r8">2793160000</Frequency><Timestamp dt:dt="r8">7.229017280322E+15</Timestamp><Current dt:dt="r8">0</Current><DateUtc dt:dt="string">2016-07-27T15:00:23Z</DateUtc></FrequencyChange></FrequencyChanges></Clock>\n	TMA Blocker Split Nostril Olfactometer_Pilot 2-54-1	74.911	1.0.0.1473	1	0		-999999	12035	4091468	0	q	291150	4382618	-554130665	2.0.10.242	2.0.10.242	07-27-2016	7/27/2016 3:00:23 PM	11:00:23	2.0.10.147	17	Fruitloops	NULL	NULL	TestProcB	NULL	Train2	NULL	NULL	NULL	NULL	NULL	NULL	NULL	NULL	NULL	NULL	NULL	NULL	Yes	NULL	NULL	NULL	1	1	1	3	2	NULL	Green	455	NULL	3	24	Fishy	NULL	NULL	NULL	Quiz	How strong is the odor?	NULL	NULL	NULL	2	1	1	1	2	-999999	39	1750090	0	2	1722	1751812	NULL	QuizList2	NULL	NULL	NULL	NULL	NULL	NULL	NULL	NULL	NULL	NULL	NULL	NULL	1	NULL	2	NULL	NULL	NULL	NULL	Green	NULL	NULL	NULL	NULL	NULL	NULL	NULL	NULL	NULL	NULL	NULL	NULL	1	4	4	PrepareProc	How strong is the odor?	Prepare	NULL	NULL	NULL	NULL	NULL	NULL	NULL	NULL	NULL
TMA Blocker Split Nostril Olfactometer_Pilot 2	54	1	<?xml version="1.0"?>\n<Clock xmlns:dt="urn:schemas-microsoft-com:datatypes"><Description dt:dt="string">E-Prime Primary Realtime Clock</Description><StartTime><Timestamp dt:dt="int">0</Timestamp><DateUtc dt:dt="string">2016-07-27T15:00:23Z</DateUtc></StartTime><FrequencyChanges><FrequencyChange><Frequency dt:dt="r8">2793160000</Frequency><Timestamp dt:dt="r8">7.229017280322E+15</Timestamp><Current dt:dt="r8">0</Current><DateUtc dt:dt="string">2016-07-27T15:00:23Z</DateUtc></FrequencyChange></FrequencyChanges></Clock>\n	TMA Blocker Split Nostril Olfactometer_Pilot 2-54-1	74.911	1.0.0.1473	1	0		-999999	12035	4091468	0	q	291150	4382618	-554130665	2.0.10.242	2.0.10.242	07-27-2016	7/27/2016 3:00:23 PM	11:00:23	2.0.10.147	17	Fruitloops	NULL	NULL	TestProcB	NULL	Train2	NULL	NULL	NULL	NULL	NULL	NULL	NULL	NULL	NULL	NULL	NULL	NULL	Yes	NULL	NULL	NULL	1	1	1	4	1	NULL	Green	551	NULL	66	20	Fruit Loop	NULL	NULL	NULL	Quiz	How strong is the odor?	NULL	NULL	NULL	3	1	2	1	1	-999999	39	1801884	0	1	4319	1806203	NULL	QuizList2	NULL	NULL	NULL	NULL	NULL	NULL	NULL	NULL	NULL	NULL	NULL	NULL	1	NULL	1	NULL	NULL	NULL	NULL	Green	NULL	NULL	NULL	NULL	NULL	NULL	NULL	NULL	NULL	NULL	NULL	NULL	1	5	5	PrepareProc	How strong is the odor?	Prepare	NULL	NULL	NULL	NULL	NULL	NULL	NULL	NULL	NULL
TMA Blocker Split Nostril Olfactometer_Pilot 2	54	1	<?xml version="1.0"?>\n<Clock xmlns:dt="urn:schemas-microsoft-com:datatypes"><Description dt:dt="string">E-Prime Primary Realtime Clock</Description><StartTime><Timestamp dt:dt="int">0</Timestamp><DateUtc dt:dt="string">2016-07-27T15:00:23Z</DateUtc></StartTime><FrequencyChanges><FrequencyChange><Frequency dt:dt="r8">2793160000</Frequency><Timestamp dt:dt="r8">7.229017280322E+15</Timestamp><Current dt:dt="r8">0</Current><DateUtc dt:dt="string">2016-07-27T15:00:23Z</DateUtc></FrequencyChange></FrequencyChanges></Clock>\n	TMA Blocker Split Nostril Olfactometer_Pilot 2-54-1	74.911	1.0.0.1473	1	0		-999999	12035	4091468	0	q	291150	4382618	-554130665	2.0.10.242	2.0.10.242	07-27-2016	7/27/2016 3:00:23 PM	11:00:23	2.0.10.147	17	Fruitloops	NULL	NULL	TestProcB	NULL	Train2	NULL	NULL	NULL	NULL	NULL	NULL	NULL	NULL	NULL	NULL	NULL	NULL	Yes	NULL	NULL	NULL	1	1	1	5	1	NULL	Green	554	NULL	192	24	Fruit Loop	NULL	NULL	NULL	Quiz	How strong is the odor?	NULL	NULL	NULL	1	1	3	1	1	-999999	39	1855548	0	1	3317	1858865	NULL	QuizList2	NULL	NULL	NULL	NULL	NULL	NULL	NULL	NULL	NULL	NULL	NULL	NULL	1	NULL	1	NULL	NULL	NULL	NULL	Green	NULL	NULL	NULL	NULL	NULL	NULL	NULL	NULL	NULL	NULL	NULL	NULL	1	6	6	PrepareProc	How strong is the odor?	Prepare	NULL	NULL	NULL	NULL	NULL	NULL	NULL	NULL	NULL
TMA Blocker Split Nostril Olfactometer_Pilot 2	54	1	<?xml version="1.0"?>\n<Clock xmlns:dt="urn:schemas-microsoft-com:datatypes"><Description dt:dt="string">E-Prime Primary Realtime Clock</Description><StartTime><Timestamp dt:dt="int">0</Timestamp><DateUtc dt:dt="string">2016-07-27T15:00:23Z</DateUtc></StartTime><FrequencyChanges><FrequencyChange><Frequency dt:dt="r8">2793160000</Frequency><Timestamp dt:dt="r8">7.229017280322E+15</Timestamp><Current dt:dt="r8">0</Current><DateUtc dt:dt="string">2016-07-27T15:00:23Z</DateUtc></FrequencyChange></FrequencyChanges></Clock>\n	TMA Blocker Split Nostril Olfactometer_Pilot 2-54-1	74.911	1.0.0.1473	1	0		-999999	12035	4091468	0	q	291150	4382618	-554130665	2.0.10.242	2.0.10.242	07-27-2016	7/27/2016 3:00:23 PM	11:00:23	2.0.10.147	17	Fruitloops	NULL	NULL	TestProcB	NULL	Train2	NULL	NULL	NULL	NULL	NULL	NULL	NULL	NULL	NULL	NULL	NULL	NULL	Yes	NULL	NULL	NULL	1	1	1	6	2	NULL	Green	434	NULL	66	9	Fishy	NULL	NULL	NULL	Quiz	How strong is the odor?	NULL	NULL	NULL	4	1	4	1	2	-999999	39	1907369	0	2	1430	1908799	NULL	QuizList2	NULL	NULL	NULL	NULL	NULL	NULL	NULL	NULL	NULL	NULL	NULL	NULL	1	NULL	2	NULL	NULL	NULL	NULL	Green	NULL	NULL	NULL	NULL	NULL	NULL	NULL	NULL	NULL	NULL	NULL	NULL	1	7	7	PrepareProc	How strong is the odor?	Prepare	NULL	NULL	NULL	NULL	NULL	NULL	NULL	NULL	NULL
TMA Blocker Split Nostril Olfactometer_Pilot 2	54	1	<?xml version="1.0"?>\n<Clock xmlns:dt="urn:schemas-microsoft-com:datatypes"><Description dt:dt="string">E-Prime Primary Realtime Clock</Description><StartTime><Timestamp dt:dt="int">0</Timestamp><DateUtc dt:dt="string">2016-07-27T15:00:23Z</DateUtc></StartTime><FrequencyChanges><FrequencyChange><Frequency dt:dt="r8">2793160000</Frequency><Timestamp dt:dt="r8">7.229017280322E+15</Timestamp><Current dt:dt="r8">0</Current><DateUtc dt:dt="string">2016-07-27T15:00:23Z</DateUtc></FrequencyChange></FrequencyChanges></Clock>\n	TMA Blocker Split Nostril Olfactometer_Pilot 2-54-1	74.911	1.0.0.1473	1	0		-999999	12035	4091468	0	q	291150	4382618	-554130665	2.0.10.242	2.0.10.242	07-27-2016	7/27/2016 3:00:23 PM	11:00:23	2.0.10.147	18	FRUIT LOOPS	NULL	NULL	BlockProcB	NULL	Test2	NULL	NULL	NULL	NULL	NULL	NULL	NULL	NULL	NULL	1	1	1	No	NULL	NULL	NULL	NULL	NULL	NULL	1	NULL	NULL	NULL	NULL	Blank	66	24	NULL	NULL	NULL	NULL	TrialProc2	NULL	NULL	NULL	NULL	NULL	NULL	NULL	NULL	NULL	NULL	NULL	NULL	NULL	NULL	NULL	NULL	Blank	TrialList2	NULL	NULL	NULL	NULL	NULL	NULL	NULL	NULL	NULL	9	1	1	1	NULL	NULL	NULL	NULL	NULL	NULL	NULL	NULL	NULL	NULL	NULL	NULL	NULL	NULL	NULL	NULL	NULL	NULL	NULL	1	8	8	PrepareProc	NULL	Prepare	NULL	NULL	NULL	NULL	NULL	NULL	NULL	NULL	NULL
TMA Blocker Split Nostril Olfactometer_Pilot 2	54	1	<?xml version="1.0"?>\n<Clock xmlns:dt="urn:schemas-microsoft-com:datatypes"><Description dt:dt="string">E-Prime Primary Realtime Clock</Description><StartTime><Timestamp dt:dt="int">0</Timestamp><DateUtc dt:dt="string">2016-07-27T15:00:23Z</DateUtc></StartTime><FrequencyChanges><FrequencyChange><Frequency dt:dt="r8">2793160000</Frequency><Timestamp dt:dt="r8">7.229017280322E+15</Timestamp><Current dt:dt="r8">0</Current><DateUtc dt:dt="string">2016-07-27T15:00:23Z</DateUtc></FrequencyChange></FrequencyChanges></Clock>\n	TMA Blocker Split Nostril Olfactometer_Pilot 2-54-1	74.911	1.0.0.1473	1	0		-999999	12035	4091468	0	q	291150	4382618	-554130665	2.0.10.242	2.0.10.242	07-27-2016	7/27/2016 3:00:23 PM	11:00:23	2.0.10.147	18	FRUIT LOOPS	NULL	NULL	BlockProcB	NULL	Test2	NULL	NULL	NULL	NULL	NULL	NULL	NULL	NULL	NULL	1	1	1	No	NULL	NULL	NULL	NULL	NULL	NULL	1	NULL	NULL	NULL	NULL	Blank	66	24	NULL	NULL	NULL	NULL	TrialProc2	NULL	NULL	NULL	NULL	NULL	NULL	NULL	NULL	NULL	NULL	NULL	NULL	NULL	NULL	NULL	NULL	Blank	TrialList2	NULL	NULL	NULL	NULL	NULL	NULL	NULL	NULL	NULL	9	1	1	2	NULL	NULL	1	1	1	NULL	Fruit Loop	548	577	NULL	NULL	NULL	NULL	NULL	NULL	NULL	NULL	NULL	1	NULL	NULL	NULL	ExperimentProc	How intense is the odor?	Experiment	NULL	NULL	NULL	NULL	NULL	NULL	NULL	NULL	?
TMA Blocker Split Nostril Olfactometer_Pilot 2	54	1	<?xml version="1.0"?>\n<Clock xmlns:dt="urn:schemas-microsoft-com:datatypes"><Description dt:dt="string">E-Prime Primary Realtime Clock</Description><StartTime><Timestamp dt:dt="int">0</Timestamp><DateUtc dt:dt="string">2016-07-27T15:00:23Z</DateUtc></StartTime><FrequencyChanges><FrequencyChange><Frequency dt:dt="r8">2793160000</Frequency><Timestamp dt:dt="r8">7.229017280322E+15</Timestamp><Current dt:dt="r8">0</Current><DateUtc dt:dt="string">2016-07-27T15:00:23Z</DateUtc></FrequencyChange></FrequencyChanges></Clock>\n	TMA Blocker Split Nostril Olfactometer_Pilot 2-54-1	74.911	1.0.0.1473	1	0		-999999	12035	4091468	0	q	291150	4382618	-554130665	2.0.10.242	2.0.10.242	07-27-2016	7/27/2016 3:00:23 PM	11:00:23	2.0.10.147	18	FRUIT LOOPS	NULL	NULL	BlockProcB	NULL	Test2	NULL	NULL	NULL	NULL	NULL	NULL	NULL	NULL	NULL	1	1	1	No	NULL	NULL	NULL	NULL	NULL	NULL	1	NULL	NULL	NULL	NULL	Blank	66	24	NULL	NULL	NULL	NULL	TrialProc2	NULL	NULL	NULL	NULL	NULL	NULL	NULL	NULL	NULL	NULL	NULL	NULL	NULL	NULL	NULL	NULL	Blank	TrialList2	NULL	NULL	NULL	NULL	NULL	NULL	NULL	NULL	NULL	9	1	1	3	Toni Braxton	2	NULL	NULL	NULL	Female	NULL	NULL	NULL	0	2	-999999	13	2045599	0	1	6813	2052412	NULL	NULL	NULL	NULL	SongTrial2	NULL	SoundList2	Just Be a Man About It	S:\mainland\Projects\TMA blocker\E-Prime\song34.wav	NULL	NULL	NULL	14	1	1	NULL
TMA Blocker Split Nostril Olfactometer_Pilot 2	54	1	<?xml version="1.0"?>\n<Clock xmlns:dt="urn:schemas-microsoft-com:datatypes"><Description dt:dt="string">E-Prime Primary Realtime Clock</Description><StartTime><Timestamp dt:dt="int">0</Timestamp><DateUtc dt:dt="string">2016-07-27T15:00:23Z</DateUtc></StartTime><FrequencyChanges><FrequencyChange><Frequency dt:dt="r8">2793160000</Frequency><Timestamp dt:dt="r8">7.229017280322E+15</Timestamp><Current dt:dt="r8">0</Current><DateUtc dt:dt="string">2016-07-27T15:00:23Z</DateUtc></FrequencyChange></FrequencyChanges></Clock>\n	TMA Blocker Split Nostril Olfactometer_Pilot 2-54-1	74.911	1.0.0.1473	1	0		-999999	12035	4091468	0	q	291150	4382618	-554130665	2.0.10.242	2.0.10.242	07-27-2016	7/27/2016 3:00:23 PM	11:00:23	2.0.10.147	18	FRUIT LOOPS	NULL	NULL	BlockProcB	NULL	Test2	NULL	NULL	NULL	NULL	NULL	NULL	NULL	NULL	NULL	1	1	1	No	NULL	NULL	NULL	NULL	NULL	NULL	2	NULL	NULL	NULL	NULL	Blank	66	5	NULL	NULL	NULL	NULL	TrialProc2	NULL	NULL	NULL	NULL	NULL	NULL	NULL	NULL	NULL	NULL	NULL	NULL	NULL	NULL	NULL	NULL	TMA+Linalool	TrialList2	NULL	NULL	NULL	NULL	NULL	NULL	NULL	NULL	NULL	6	1	2	1	NULL	NULL	NULL	NULL	NULL	NULL	NULL	NULL	NULL	NULL	NULL	NULL	NULL	NULL	NULL	NULL	NULL	NULL	NULL	1	9	9	PrepareProc	NULL	Prepare	NULL	NULL	NULL	NULL	NULL	NULL	NULL	NULL	NULL
TMA Blocker Split Nostril Olfactometer_Pilot 2	54	1	<?xml version="1.0"?>\n<Clock xmlns:dt="urn:schemas-microsoft-com:datatypes"><Description dt:dt="string">E-Prime Primary Realtime Clock</Description><StartTime><Timestamp dt:dt="int">0</Timestamp><DateUtc dt:dt="string">2016-07-27T15:00:23Z</DateUtc></StartTime><FrequencyChanges><FrequencyChange><Frequency dt:dt="r8">2793160000</Frequency><Timestamp dt:dt="r8">7.229017280322E+15</Timestamp><Current dt:dt="r8">0</Current><DateUtc dt:dt="string">2016-07-27T15:00:23Z</DateUtc></FrequencyChange></FrequencyChanges></Clock>\n	TMA Blocker Split Nostril Olfactometer_Pilot 2-54-1	74.911	1.0.0.1473	1	0		-999999	12035	4091468	0	q	291150	4382618	-554130665	2.0.10.242	2.0.10.242	07-27-2016	7/27/2016 3:00:23 PM	11:00:23	2.0.10.147	18	FRUIT LOOPS	NULL	NULL	BlockProcB	NULL	Test2	NULL	NULL	NULL	NULL	NULL	NULL	NULL	NULL	NULL	1	1	1	No	NULL	NULL	NULL	NULL	NULL	NULL	2	NULL	NULL	NULL	NULL	Blank	66	5	NULL	NULL	NULL	NULL	TrialProc2	NULL	NULL	NULL	NULL	NULL	NULL	NULL	NULL	NULL	NULL	NULL	NULL	NULL	NULL	NULL	NULL	TMA+Linalool	TrialList2	NULL	NULL	NULL	NULL	NULL	NULL	NULL	NULL	NULL	6	1	2	2	NULL	NULL	1	2	2	NULL	Fruit Loop	579	514	NULL	NULL	NULL	NULL	NULL	NULL	NULL	NULL	NULL	1	NULL	NULL	NULL	ExperimentProc	How intense is the odor?	Experiment	NULL	NULL	NULL	NULL	NULL	NULL	NULL	NULL	?
TMA Blocker Split Nostril Olfactometer_Pilot 2	54	1	<?xml version="1.0"?>\n<Clock xmlns:dt="urn:schemas-microsoft-com:datatypes"><Description dt:dt="string">E-Prime Primary Realtime Clock</Description><StartTime><Timestamp dt:dt="int">0</Timestamp><DateUtc dt:dt="string">2016-07-27T15:00:23Z</DateUtc></StartTime><FrequencyChanges><FrequencyChange><Frequency dt:dt="r8">2793160000</Frequency><Timestamp dt:dt="r8">7.229017280322E+15</Timestamp><Current dt:dt="r8">0</Current><DateUtc dt:dt="string">2016-07-27T15:00:23Z</DateUtc></FrequencyChange></FrequencyChanges></Clock>\n	TMA Blocker Split Nostril Olfactometer_Pilot 2-54-1	74.911	1.0.0.1473	1	0		-999999	12035	4091468	0	q	291150	4382618	-554130665	2.0.10.242	2.0.10.242	07-27-2016	7/27/2016 3:00:23 PM	11:00:23	2.0.10.147	18	FRUIT LOOPS	NULL	NULL	BlockProcB	NULL	Test2	NULL	NULL	NULL	NULL	NULL	NULL	NULL	NULL	NULL	1	1	1	No	NULL	NULL	NULL	NULL	NULL	NULL	2	NULL	NULL	NULL	NULL	Blank	66	5	NULL	NULL	NULL	NULL	TrialProc2	NULL	NULL	NULL	NULL	NULL	NULL	NULL	NULL	NULL	NULL	NULL	NULL	NULL	NULL	NULL	NULL	TMA+Linalool	TrialList2	NULL	NULL	NULL	NULL	NULL	NULL	NULL	NULL	NULL	6	1	2	3	Jimmy Scott 	1	NULL	NULL	NULL	Male	NULL	NULL	NULL	0	1	-999999	26	2098221	0	2	2774	2100995	NULL	NULL	NULL	NULL	SongTrial2	NULL	SoundList2	Unchained Melody	S:\mainland\Projects\TMA blocker\E-Prime\song39.wav	NULL	NULL	NULL	19	1	2	NULL
TMA Blocker Split Nostril Olfactometer_Pilot 2	54	1	<?xml version="1.0"?>\n<Clock xmlns:dt="urn:schemas-microsoft-com:datatypes"><Description dt:dt="string">E-Prime Primary Realtime Clock</Description><StartTime><Timestamp dt:dt="int">0</Timestamp><DateUtc dt:dt="string">2016-07-27T15:00:23Z</DateUtc></StartTime><FrequencyChanges><FrequencyChange><Frequency dt:dt="r8">2793160000</Frequency><Timestamp dt:dt="r8">7.229017280322E+15</Timestamp><Current dt:dt="r8">0</Current><DateUtc dt:dt="string">2016-07-27T15:00:23Z</DateUtc></FrequencyChange></FrequencyChanges></Clock>\n	TMA Blocker Split Nostril Olfactometer_Pilot 2-54-1	74.911	1.0.0.1473	1	0		-999999	12035	4091468	0	q	291150	4382618	-554130665	2.0.10.242	2.0.10.242	07-27-2016	7/27/2016 3:00:23 PM	11:00:23	2.0.10.147	18	FRUIT LOOPS	NULL	NULL	BlockProcB	NULL	Test2	NULL	NULL	NULL	NULL	NULL	NULL	NULL	NULL	NULL	1	1	1	No	NULL	NULL	NULL	NULL	NULL	NULL	3	NULL	NULL	NULL	NULL	Linalool	192	24	NULL	NULL	NULL	NULL	TrialProc2	NULL	NULL	NULL	NULL	NULL	NULL	NULL	NULL	NULL	NULL	NULL	NULL	NULL	NULL	NULL	NULL	Blank	TrialList2	NULL	NULL	NULL	NULL	NULL	NULL	NULL	NULL	NULL	3	1	3	1	NULL	NULL	NULL	NULL	NULL	NULL	NULL	NULL	NULL	NULL	NULL	NULL	NULL	NULL	NULL	NULL	NULL	NULL	NULL	1	10	10	PrepareProc	NULL	Prepare	NULL	NULL	NULL	NULL	NULL	NULL	NULL	NULL	NULL
TMA Blocker Split Nostril Olfactometer_Pilot 2	54	1	<?xml version="1.0"?>\n<Clock xmlns:dt="urn:schemas-microsoft-com:datatypes"><Description dt:dt="string">E-Prime Primary Realtime Clock</Description><StartTime><Timestamp dt:dt="int">0</Timestamp><DateUtc dt:dt="string">2016-07-27T15:00:23Z</DateUtc></StartTime><FrequencyChanges><FrequencyChange><Frequency dt:dt="r8">2793160000</Frequency><Timestamp dt:dt="r8">7.229017280322E+15</Timestamp><Current dt:dt="r8">0</Current><DateUtc dt:dt="string">2016-07-27T15:00:23Z</DateUtc></FrequencyChange></FrequencyChanges></Clock>\n	TMA Blocker Split Nostril Olfactometer_Pilot 2-54-1	74.911	1.0.0.1473	1	0		-999999	12035	4091468	0	q	291150	4382618	-554130665	2.0.10.242	2.0.10.242	07-27-2016	7/27/2016 3:00:23 PM	11:00:23	2.0.10.147	18	FRUIT LOOPS	NULL	NULL	BlockProcB	NULL	Test2	NULL	NULL	NULL	NULL	NULL	NULL	NULL	NULL	NULL	1	1	1	No	NULL	NULL	NULL	NULL	NULL	NULL	3	NULL	NULL	NULL	NULL	Linalool	192	24	NULL	NULL	NULL	NULL	TrialProc2	NULL	NULL	NULL	NULL	NULL	NULL	NULL	NULL	NULL	NULL	NULL	NULL	NULL	NULL	NULL	NULL	Blank	TrialList2	NULL	NULL	NULL	NULL	NULL	NULL	NULL	NULL	NULL	3	1	3	2	NULL	NULL	1	3	3	NULL	Fruit Loop	575	574	NULL	NULL	NULL	NULL	NULL	NULL	NULL	NULL	NULL	1	NULL	NULL	NULL	ExperimentProc	How intense is the odor?	Experiment	NULL	NULL	NULL	NULL	NULL	NULL	NULL	NULL	?
TMA Blocker Split Nostril Olfactometer_Pilot 2	54	1	<?xml version="1.0"?>\n<Clock xmlns:dt="urn:schemas-microsoft-com:datatypes"><Description dt:dt="string">E-Prime Primary Realtime Clock</Description><StartTime><Timestamp dt:dt="int">0</Timestamp><DateUtc dt:dt="string">2016-07-27T15:00:23Z</DateUtc></StartTime><FrequencyChanges><FrequencyChange><Frequency dt:dt="r8">2793160000</Frequency><Timestamp dt:dt="r8">7.229017280322E+15</Timestamp><Current dt:dt="r8">0</Current><DateUtc dt:dt="string">2016-07-27T15:00:23Z</DateUtc></FrequencyChange></FrequencyChanges></Clock>\n	TMA Blocker Split Nostril Olfactometer_Pilot 2-54-1	74.911	1.0.0.1473	1	0		-999999	12035	4091468	0	q	291150	4382618	-554130665	2.0.10.242	2.0.10.242	07-27-2016	7/27/2016 3:00:23 PM	11:00:23	2.0.10.147	18	FRUIT LOOPS	NULL	NULL	BlockProcB	NULL	Test2	NULL	NULL	NULL	NULL	NULL	NULL	NULL	NULL	NULL	1	1	1	No	NULL	NULL	NULL	NULL	NULL	NULL	3	NULL	NULL	NULL	NULL	Linalool	192	24	NULL	NULL	NULL	NULL	TrialProc2	NULL	NULL	NULL	NULL	NULL	NULL	NULL	NULL	NULL	NULL	NULL	NULL	NULL	NULL	NULL	NULL	Blank	TrialList2	NULL	NULL	NULL	NULL	NULL	NULL	NULL	NULL	NULL	3	1	3	3	Joel Thibodeau	1	NULL	NULL	NULL	Male	NULL	NULL	NULL	0	1	-999999	13	2148627	0	2	1678	2150305	NULL	NULL	NULL	NULL	SongTrial2	NULL	SoundList2	Death Vessel - Circa	S:\mainland\Projects\TMA blocker\E-Prime\song37.wav	NULL	NULL	NULL	17	1	3	NULL
TMA Blocker Split Nostril Olfactometer_Pilot 2	54	1	<?xml version="1.0"?>\n<Clock xmlns:dt="urn:schemas-microsoft-com:datatypes"><Description dt:dt="string">E-Prime Primary Realtime Clock</Description><StartTime><Timestamp dt:dt="int">0</Timestamp><DateUtc dt:dt="string">2016-07-27T15:00:23Z</DateUtc></StartTime><FrequencyChanges><FrequencyChange><Frequency dt:dt="r8">2793160000</Frequency><Timestamp dt:dt="r8">7.229017280322E+15</Timestamp><Current dt:dt="r8">0</Current><DateUtc dt:dt="string">2016-07-27T15:00:23Z</DateUtc></FrequencyChange></FrequencyChanges></Clock>\n	TMA Blocker Split Nostril Olfactometer_Pilot 2-54-1	74.911	1.0.0.1473	1	0		-999999	12035	4091468	0	q	291150	4382618	-554130665	2.0.10.242	2.0.10.242	07-27-2016	7/27/2016 3:00:23 PM	11:00:23	2.0.10.147	18	FRUIT LOOPS	NULL	NULL	BlockProcB	NULL	Test2	NULL	NULL	NULL	NULL	NULL	NULL	NULL	NULL	NULL	1	1	1	No	NULL	NULL	NULL	NULL	NULL	NULL	4	NULL	NULL	NULL	NULL	Blank	66	9	NULL	NULL	NULL	NULL	TrialProc2	NULL	NULL	NULL	NULL	NULL	NULL	NULL	NULL	NULL	NULL	NULL	NULL	NULL	NULL	NULL	NULL	TMA	TrialList2	NULL	NULL	NULL	NULL	NULL	NULL	NULL	NULL	NULL	2	1	4	1	NULL	NULL	NULL	NULL	NULL	NULL	NULL	NULL	NULL	NULL	NULL	NULL	NULL	NULL	NULL	NULL	NULL	NULL	NULL	1	11	11	PrepareProc	NULL	Prepare	NULL	NULL	NULL	NULL	NULL	NULL	NULL	NULL	NULL
TMA Blocker Split Nostril Olfactometer_Pilot 2	54	1	<?xml version="1.0"?>\n<Clock xmlns:dt="urn:schemas-microsoft-com:datatypes"><Description dt:dt="string">E-Prime Primary Realtime Clock</Description><StartTime><Timestamp dt:dt="int">0</Timestamp><DateUtc dt:dt="string">2016-07-27T15:00:23Z</DateUtc></StartTime><FrequencyChanges><FrequencyChange><Frequency dt:dt="r8">2793160000</Frequency><Timestamp dt:dt="r8">7.229017280322E+15</Timestamp><Current dt:dt="r8">0</Current><DateUtc dt:dt="string">2016-07-27T15:00:23Z</DateUtc></FrequencyChange></FrequencyChanges></Clock>\n	TMA Blocker Split Nostril Olfactometer_Pilot 2-54-1	74.911	1.0.0.1473	1	0		-999999	12035	4091468	0	q	291150	4382618	-554130665	2.0.10.242	2.0.10.242	07-27-2016	7/27/2016 3:00:23 PM	11:00:23	2.0.10.147	18	FRUIT LOOPS	NULL	NULL	BlockProcB	NULL	Test2	NULL	NULL	NULL	NULL	NULL	NULL	NULL	NULL	NULL	1	1	1	No	NULL	NULL	NULL	NULL	NULL	NULL	4	NULL	NULL	NULL	NULL	Blank	66	9	NULL	NULL	NULL	NULL	TrialProc2	NULL	NULL	NULL	NULL	NULL	NULL	NULL	NULL	NULL	NULL	NULL	NULL	NULL	NULL	NULL	NULL	TMA	TrialList2	NULL	NULL	NULL	NULL	NULL	NULL	NULL	NULL	NULL	2	1	4	2	NULL	NULL	1	4	4	NULL	Fruit Loop	578	555	NULL	NULL	NULL	NULL	NULL	NULL	NULL	NULL	NULL	1	NULL	NULL	NULL	ExperimentProc	How intense is the odor?	Experiment	NULL	NULL	NULL	NULL	NULL	NULL	NULL	NULL	?
TMA Blocker Split Nostril Olfactometer_Pilot 2	54	1	<?xml version="1.0"?>\n<Clock xmlns:dt="urn:schemas-microsoft-com:datatypes"><Description dt:dt="string">E-Prime Primary Realtime Clock</Description><StartTime><Timestamp dt:dt="int">0</Timestamp><DateUtc dt:dt="string">2016-07-27T15:00:23Z</DateUtc></StartTime><FrequencyChanges><FrequencyChange><Frequency dt:dt="r8">2793160000</Frequency><Timestamp dt:dt="r8">7.229017280322E+15</Timestamp><Current dt:dt="r8">0</Current><DateUtc dt:dt="string">2016-07-27T15:00:23Z</DateUtc></FrequencyChange></FrequencyChanges></Clock>\n	TMA Blocker Split Nostril Olfactometer_Pilot 2-54-1	74.911	1.0.0.1473	1	0		-999999	12035	4091468	0	q	291150	4382618	-554130665	2.0.10.242	2.0.10.242	07-27-2016	7/27/2016 3:00:23 PM	11:00:23	2.0.10.147	18	FRUIT LOOPS	NULL	NULL	BlockProcB	NULL	Test2	NULL	NULL	NULL	NULL	NULL	NULL	NULL	NULL	NULL	1	1	1	No	NULL	NULL	NULL	NULL	NULL	NULL	4	NULL	NULL	NULL	NULL	Blank	66	9	NULL	NULL	NULL	NULL	TrialProc2	NULL	NULL	NULL	NULL	NULL	NULL	NULL	NULL	NULL	NULL	NULL	NULL	NULL	NULL	NULL	NULL	TMA	TrialList2	NULL	NULL	NULL	NULL	NULL	NULL	NULL	NULL	NULL	2	1	4	3	Silversun Pickups	1	NULL	NULL	NULL	Male	NULL	NULL	NULL	1	1	-999999	13	2195082	0	1	2974	2198056	NULL	NULL	NULL	NULL	SongTrial2	NULL	SoundList2	Lazy Eye	S:\mainland\Projects\TMA blocker\E-Prime\song22.wav	NULL	NULL	NULL	2	1	4	NULL
TMA Blocker Split Nostril Olfactometer_Pilot 2	54	1	<?xml version="1.0"?>\n<Clock xmlns:dt="urn:schemas-microsoft-com:datatypes"><Description dt:dt="string">E-Prime Primary Realtime Clock</Description><StartTime><Timestamp dt:dt="int">0</Timestamp><DateUtc dt:dt="string">2016-07-27T15:00:23Z</DateUtc></StartTime><FrequencyChanges><FrequencyChange><Frequency dt:dt="r8">2793160000</Frequency><Timestamp dt:dt="r8">7.229017280322E+15</Timestamp><Current dt:dt="r8">0</Current><DateUtc dt:dt="string">2016-07-27T15:00:23Z</DateUtc></FrequencyChange></FrequencyChanges></Clock>\n	TMA Blocker Split Nostril Olfactometer_Pilot 2-54-1	74.911	1.0.0.1473	1	0		-999999	12035	4091468	0	q	291150	4382618	-554130665	2.0.10.242	2.0.10.242	07-27-2016	7/27/2016 3:00:23 PM	11:00:23	2.0.10.147	18	FRUIT LOOPS	NULL	NULL	BlockProcB	NULL	Test2	NULL	NULL	NULL	NULL	NULL	NULL	NULL	NULL	NULL	1	1	1	No	NULL	NULL	NULL	NULL	NULL	NULL	5	NULL	NULL	NULL	NULL	TMA	3	24	NULL	NULL	NULL	NULL	TrialProc2	NULL	NULL	NULL	NULL	NULL	NULL	NULL	NULL	NULL	NULL	NULL	NULL	NULL	NULL	NULL	NULL	Blank	TrialList2	NULL	NULL	NULL	NULL	NULL	NULL	NULL	NULL	NULL	1	1	5	1	NULL	NULL	NULL	NULL	NULL	NULL	NULL	NULL	NULL	NULL	NULL	NULL	NULL	NULL	NULL	NULL	NULL	NULL	NULL	1	12	12	PrepareProc	NULL	Prepare	NULL	NULL	NULL	NULL	NULL	NULL	NULL	NULL	NULL
TMA Blocker Split Nostril Olfactometer_Pilot 2	54	1	<?xml version="1.0"?>\n<Clock xmlns:dt="urn:schemas-microsoft-com:datatypes"><Description dt:dt="string">E-Prime Primary Realtime Clock</Description><StartTime><Timestamp dt:dt="int">0</Timestamp><DateUtc dt:dt="string">2016-07-27T15:00:23Z</DateUtc></StartTime><FrequencyChanges><FrequencyChange><Frequency dt:dt="r8">2793160000</Frequency><Timestamp dt:dt="r8">7.229017280322E+15</Timestamp><Current dt:dt="r8">0</Current><DateUtc dt:dt="string">2016-07-27T15:00:23Z</DateUtc></FrequencyChange></FrequencyChanges></Clock>\n	TMA Blocker Split Nostril Olfactometer_Pilot 2-54-1	74.911	1.0.0.1473	1	0		-999999	12035	4091468	0	q	291150	4382618	-554130665	2.0.10.242	2.0.10.242	07-27-2016	7/27/2016 3:00:23 PM	11:00:23	2.0.10.147	18	FRUIT LOOPS	NULL	NULL	BlockProcB	NULL	Test2	NULL	NULL	NULL	NULL	NULL	NULL	NULL	NULL	NULL	1	1	1	No	NULL	NULL	NULL	NULL	NULL	NULL	5	NULL	NULL	NULL	NULL	TMA	3	24	NULL	NULL	NULL	NULL	TrialProc2	NULL	NULL	NULL	NULL	NULL	NULL	NULL	NULL	NULL	NULL	NULL	NULL	NULL	NULL	NULL	NULL	Blank	TrialList2	NULL	NULL	NULL	NULL	NULL	NULL	NULL	NULL	NULL	1	1	5	2	NULL	NULL	1	5	5	NULL	Fruit Loop	578	546	NULL	NULL	NULL	NULL	NULL	NULL	NULL	NULL	NULL	1	NULL	NULL	NULL	ExperimentProc	How intense is the odor?	Experiment	NULL	NULL	NULL	NULL	NULL	NULL	NULL	NULL	?
TMA Blocker Split Nostril Olfactometer_Pilot 2	54	1	<?xml version="1.0"?>\n<Clock xmlns:dt="urn:schemas-microsoft-com:datatypes"><Description dt:dt="string">E-Prime Primary Realtime Clock</Description><StartTime><Timestamp dt:dt="int">0</Timestamp><DateUtc dt:dt="string">2016-07-27T15:00:23Z</DateUtc></StartTime><FrequencyChanges><FrequencyChange><Frequency dt:dt="r8">2793160000</Frequency><Timestamp dt:dt="r8">7.229017280322E+15</Timestamp><Current dt:dt="r8">0</Current><DateUtc dt:dt="string">2016-07-27T15:00:23Z</DateUtc></FrequencyChange></FrequencyChanges></Clock>\n	TMA Blocker Split Nostril Olfactometer_Pilot 2-54-1	74.911	1.0.0.1473	1	0		-999999	12035	4091468	0	q	291150	4382618	-554130665	2.0.10.242	2.0.10.242	07-27-2016	7/27/2016 3:00:23 PM	11:00:23	2.0.10.147	18	FRUIT LOOPS	NULL	NULL	BlockProcB	NULL	Test2	NULL	NULL	NULL	NULL	NULL	NULL	NULL	NULL	NULL	1	1	1	No	NULL	NULL	NULL	NULL	NULL	NULL	5	NULL	NULL	NULL	NULL	TMA	3	24	NULL	NULL	NULL	NULL	TrialProc2	NULL	NULL	NULL	NULL	NULL	NULL	NULL	NULL	NULL	NULL	NULL	NULL	NULL	NULL	NULL	NULL	Blank	TrialList2	NULL	NULL	NULL	NULL	NULL	NULL	NULL	NULL	NULL	1	1	5	3	Dolores O'Riordan	2	NULL	NULL	NULL	Female	NULL	NULL	NULL	1	2	-999999	13	2242832	0	2	2510	2245342	NULL	NULL	NULL	NULL	SongTrial2	NULL	SoundList2	The Cranberries - Free to Decide	S:\mainland\Projects\TMA blocker\E-Prime\song33.wav	NULL	NULL	NULL	13	1	5	NULL
TMA Blocker Split Nostril Olfactometer_Pilot 2	54	1	<?xml version="1.0"?>\n<Clock xmlns:dt="urn:schemas-microsoft-com:datatypes"><Description dt:dt="string">E-Prime Primary Realtime Clock</Description><StartTime><Timestamp dt:dt="int">0</Timestamp><DateUtc dt:dt="string">2016-07-27T15:00:23Z</DateUtc></StartTime><FrequencyChanges><FrequencyChange><Frequency dt:dt="r8">2793160000</Frequency><Timestamp dt:dt="r8">7.229017280322E+15</Timestamp><Current dt:dt="r8">0</Current><DateUtc dt:dt="string">2016-07-27T15:00:23Z</DateUtc></FrequencyChange></FrequencyChanges></Clock>\n	TMA Blocker Split Nostril Olfactometer_Pilot 2-54-1	74.911	1.0.0.1473	1	0		-999999	12035	4091468	0	q	291150	4382618	-554130665	2.0.10.242	2.0.10.242	07-27-2016	7/27/2016 3:00:23 PM	11:00:23	2.0.10.147	18	FRUIT LOOPS	NULL	NULL	BlockProcB	NULL	Test2	NULL	NULL	NULL	NULL	NULL	NULL	NULL	NULL	NULL	1	1	1	No	NULL	NULL	NULL	NULL	NULL	NULL	6	NULL	NULL	NULL	NULL	Linalool	192	9	NULL	NULL	NULL	NULL	TrialProc2	NULL	NULL	NULL	NULL	NULL	NULL	NULL	NULL	NULL	NULL	NULL	NULL	NULL	NULL	NULL	NULL	TMA	TrialList2	NULL	NULL	NULL	NULL	NULL	NULL	NULL	NULL	NULL	8	1	6	1	NULL	NULL	NULL	NULL	NULL	NULL	NULL	NULL	NULL	NULL	NULL	NULL	NULL	NULL	NULL	NULL	NULL	NULL	NULL	1	13	13	PrepareProc	NULL	Prepare	NULL	NULL	NULL	NULL	NULL	NULL	NULL	NULL	NULL
TMA Blocker Split Nostril Olfactometer_Pilot 2	54	1	<?xml version="1.0"?>\n<Clock xmlns:dt="urn:schemas-microsoft-com:datatypes"><Description dt:dt="string">E-Prime Primary Realtime Clock</Description><StartTime><Timestamp dt:dt="int">0</Timestamp><DateUtc dt:dt="string">2016-07-27T15:00:23Z</DateUtc></StartTime><FrequencyChanges><FrequencyChange><Frequency dt:dt="r8">2793160000</Frequency><Timestamp dt:dt="r8">7.229017280322E+15</Timestamp><Current dt:dt="r8">0</Current><DateUtc dt:dt="string">2016-07-27T15:00:23Z</DateUtc></FrequencyChange></FrequencyChanges></Clock>\n	TMA Blocker Split Nostril Olfactometer_Pilot 2-54-1	74.911	1.0.0.1473	1	0		-999999	12035	4091468	0	q	291150	4382618	-554130665	2.0.10.242	2.0.10.242	07-27-2016	7/27/2016 3:00:23 PM	11:00:23	2.0.10.147	18	FRUIT LOOPS	NULL	NULL	BlockProcB	NULL	Test2	NULL	NULL	NULL	NULL	NULL	NULL	NULL	NULL	NULL	1	1	1	No	NULL	NULL	NULL	NULL	NULL	NULL	6	NULL	NULL	NULL	NULL	Linalool	192	9	NULL	NULL	NULL	NULL	TrialProc2	NULL	NULL	NULL	NULL	NULL	NULL	NULL	NULL	NULL	NULL	NULL	NULL	NULL	NULL	NULL	NULL	TMA	TrialList2	NULL	NULL	NULL	NULL	NULL	NULL	NULL	NULL	NULL	8	1	6	2	NULL	NULL	1	6	6	NULL	Fruit Loop	576	521	NULL	NULL	NULL	NULL	NULL	NULL	NULL	NULL	NULL	1	NULL	NULL	NULL	ExperimentProc	How intense is the odor?	Experiment	NULL	NULL	NULL	NULL	NULL	NULL	NULL	NULL	?
TMA Blocker Split Nostril Olfactometer_Pilot 2	54	1	<?xml version="1.0"?>\n<Clock xmlns:dt="urn:schemas-microsoft-com:datatypes"><Description dt:dt="string">E-Prime Primary Realtime Clock</Description><StartTime><Timestamp dt:dt="int">0</Timestamp><DateUtc dt:dt="string">2016-07-27T15:00:23Z</DateUtc></StartTime><FrequencyChanges><FrequencyChange><Frequency dt:dt="r8">2793160000</Frequency><Timestamp dt:dt="r8">7.229017280322E+15</Timestamp><Current dt:dt="r8">0</Current><DateUtc dt:dt="string">2016-07-27T15:00:23Z</DateUtc></FrequencyChange></FrequencyChanges></Clock>\n	TMA Blocker Split Nostril Olfactometer_Pilot 2-54-1	74.911	1.0.0.1473	1	0		-999999	12035	4091468	0	q	291150	4382618	-554130665	2.0.10.242	2.0.10.242	07-27-2016	7/27/2016 3:00:23 PM	11:00:23	2.0.10.147	18	FRUIT LOOPS	NULL	NULL	BlockProcB	NULL	Test2	NULL	NULL	NULL	NULL	NULL	NULL	NULL	NULL	NULL	1	1	1	No	NULL	NULL	NULL	NULL	NULL	NULL	6	NULL	NULL	NULL	NULL	Linalool	192	9	NULL	NULL	NULL	NULL	TrialProc2	NULL	NULL	NULL	NULL	NULL	NULL	NULL	NULL	NULL	NULL	NULL	NULL	NULL	NULL	NULL	NULL	TMA	TrialList2	NULL	NULL	NULL	NULL	NULL	NULL	NULL	NULL	NULL	8	1	6	3	Ralph Tresvant	1	NULL	NULL	NULL	Male	NULL	NULL	NULL	1	1	-999999	13	2289153	0	1	2340	2291493	NULL	NULL	NULL	NULL	SongTrial2	NULL	SoundList2	New Edition - Cool It Now	S:\mainland\Projects\TMA blocker\E-Prime\song38.wav	NULL	NULL	NULL	18	1	6	NULL
TMA Blocker Split Nostril Olfactometer_Pilot 2	54	1	<?xml version="1.0"?>\n<Clock xmlns:dt="urn:schemas-microsoft-com:datatypes"><Description dt:dt="string">E-Prime Primary Realtime Clock</Description><StartTime><Timestamp dt:dt="int">0</Timestamp><DateUtc dt:dt="string">2016-07-27T15:00:23Z</DateUtc></StartTime><FrequencyChanges><FrequencyChange><Frequency dt:dt="r8">2793160000</Frequency><Timestamp dt:dt="r8">7.229017280322E+15</Timestamp><Current dt:dt="r8">0</Current><DateUtc dt:dt="string">2016-07-27T15:00:23Z</DateUtc></FrequencyChange></FrequencyChanges></Clock>\n	TMA Blocker Split Nostril Olfactometer_Pilot 2-54-1	74.911	1.0.0.1473	1	0		-999999	12035	4091468	0	q	291150	4382618	-554130665	2.0.10.242	2.0.10.242	07-27-2016	7/27/2016 3:00:23 PM	11:00:23	2.0.10.147	18	FRUIT LOOPS	NULL	NULL	BlockProcB	NULL	Test2	NULL	NULL	NULL	NULL	NULL	NULL	NULL	NULL	NULL	1	1	1	No	NULL	NULL	NULL	NULL	NULL	NULL	7	NULL	NULL	NULL	NULL	TMA	3	20	NULL	NULL	NULL	NULL	TrialProc2	NULL	NULL	NULL	NULL	NULL	NULL	NULL	NULL	NULL	NULL	NULL	NULL	NULL	NULL	NULL	NULL	Linalool	TrialList2	NULL	NULL	NULL	NULL	NULL	NULL	NULL	NULL	NULL	7	1	7	1	NULL	NULL	NULL	NULL	NULL	NULL	NULL	NULL	NULL	NULL	NULL	NULL	NULL	NULL	NULL	NULL	NULL	NULL	NULL	1	14	14	PrepareProc	NULL	Prepare	NULL	NULL	NULL	NULL	NULL	NULL	NULL	NULL	NULL
TMA Blocker Split Nostril Olfactometer_Pilot 2	54	1	<?xml version="1.0"?>\n<Clock xmlns:dt="urn:schemas-microsoft-com:datatypes"><Description dt:dt="string">E-Prime Primary Realtime Clock</Description><StartTime><Timestamp dt:dt="int">0</Timestamp><DateUtc dt:dt="string">2016-07-27T15:00:23Z</DateUtc></StartTime><FrequencyChanges><FrequencyChange><Frequency dt:dt="r8">2793160000</Frequency><Timestamp dt:dt="r8">7.229017280322E+15</Timestamp><Current dt:dt="r8">0</Current><DateUtc dt:dt="string">2016-07-27T15:00:23Z</DateUtc></FrequencyChange></FrequencyChanges></Clock>\n	TMA Blocker Split Nostril Olfactometer_Pilot 2-54-1	74.911	1.0.0.1473	1	0		-999999	12035	4091468	0	q	291150	4382618	-554130665	2.0.10.242	2.0.10.242	07-27-2016	7/27/2016 3:00:23 PM	11:00:23	2.0.10.147	18	FRUIT LOOPS	NULL	NULL	BlockProcB	NULL	Test2	NULL	NULL	NULL	NULL	NULL	NULL	NULL	NULL	NULL	1	1	1	No	NULL	NULL	NULL	NULL	NULL	NULL	7	NULL	NULL	NULL	NULL	TMA	3	20	NULL	NULL	NULL	NULL	TrialProc2	NULL	NULL	NULL	NULL	NULL	NULL	NULL	NULL	NULL	NULL	NULL	NULL	NULL	NULL	NULL	NULL	Linalool	TrialList2	NULL	NULL	NULL	NULL	NULL	NULL	NULL	NULL	NULL	7	1	7	2	NULL	NULL	1	7	7	NULL	Fruit Loop	579	550	NULL	NULL	NULL	NULL	NULL	NULL	NULL	NULL	NULL	1	NULL	NULL	NULL	ExperimentProc	How intense is the odor?	Experiment	NULL	NULL	NULL	NULL	NULL	NULL	NULL	NULL	?
TMA Blocker Split Nostril Olfactometer_Pilot 2	54	1	<?xml version="1.0"?>\n<Clock xmlns:dt="urn:schemas-microsoft-com:datatypes"><Description dt:dt="string">E-Prime Primary Realtime Clock</Description><StartTime><Timestamp dt:dt="int">0</Timestamp><DateUtc dt:dt="string">2016-07-27T15:00:23Z</DateUtc></StartTime><FrequencyChanges><FrequencyChange><Frequency dt:dt="r8">2793160000</Frequency><Timestamp dt:dt="r8">7.229017280322E+15</Timestamp><Current dt:dt="r8">0</Current><DateUtc dt:dt="string">2016-07-27T15:00:23Z</DateUtc></FrequencyChange></FrequencyChanges></Clock>\n	TMA Blocker Split Nostril Olfactometer_Pilot 2-54-1	74.911	1.0.0.1473	1	0		-999999	12035	4091468	0	q	291150	4382618	-554130665	2.0.10.242	2.0.10.242	07-27-2016	7/27/2016 3:00:23 PM	11:00:23	2.0.10.147	18	FRUIT LOOPS	NULL	NULL	BlockProcB	NULL	Test2	NULL	NULL	NULL	NULL	NULL	NULL	NULL	NULL	NULL	1	1	1	No	NULL	NULL	NULL	NULL	NULL	NULL	7	NULL	NULL	NULL	NULL	TMA	3	20	NULL	NULL	NULL	NULL	TrialProc2	NULL	NULL	NULL	NULL	NULL	NULL	NULL	NULL	NULL	NULL	NULL	NULL	NULL	NULL	NULL	NULL	Linalool	TrialList2	NULL	NULL	NULL	NULL	NULL	NULL	NULL	NULL	NULL	7	1	7	3	Cher	2	NULL	NULL	NULL	Female	NULL	NULL	NULL	1	2	-999999	13	2333699	0	2	1528	2335227	NULL	NULL	NULL	NULL	SongTrial2	NULL	SoundList2	We All Sleep Alone	S:\mainland\Projects\TMA blocker\E-Prime\song36.wav	NULL	NULL	NULL	16	1	7	NULL
TMA Blocker Split Nostril Olfactometer_Pilot 2	54	1	<?xml version="1.0"?>\n<Clock xmlns:dt="urn:schemas-microsoft-com:datatypes"><Description dt:dt="string">E-Prime Primary Realtime Clock</Description><StartTime><Timestamp dt:dt="int">0</Timestamp><DateUtc dt:dt="string">2016-07-27T15:00:23Z</DateUtc></StartTime><FrequencyChanges><FrequencyChange><Frequency dt:dt="r8">2793160000</Frequency><Timestamp dt:dt="r8">7.229017280322E+15</Timestamp><Current dt:dt="r8">0</Current><DateUtc dt:dt="string">2016-07-27T15:00:23Z</DateUtc></FrequencyChange></FrequencyChanges></Clock>\n	TMA Blocker Split Nostril Olfactometer_Pilot 2-54-1	74.911	1.0.0.1473	1	0		-999999	12035	4091468	0	q	291150	4382618	-554130665	2.0.10.242	2.0.10.242	07-27-2016	7/27/2016 3:00:23 PM	11:00:23	2.0.10.147	18	FRUIT LOOPS	NULL	NULL	BlockProcB	NULL	Test2	NULL	NULL	NULL	NULL	NULL	NULL	NULL	NULL	NULL	1	1	1	No	NULL	NULL	NULL	NULL	NULL	NULL	8	NULL	NULL	NULL	NULL	TMA+Linalool	129	24	NULL	NULL	NULL	NULL	TrialProc2	NULL	NULL	NULL	NULL	NULL	NULL	NULL	NULL	NULL	NULL	NULL	NULL	NULL	NULL	NULL	NULL	Blank	TrialList2	NULL	NULL	NULL	NULL	NULL	NULL	NULL	NULL	NULL	5	1	8	1	NULL	NULL	NULL	NULL	NULL	NULL	NULL	NULL	NULL	NULL	NULL	NULL	NULL	NULL	NULL	NULL	NULL	NULL	NULL	1	15	15	PrepareProc	NULL	Prepare	NULL	NULL	NULL	NULL	NULL	NULL	NULL	NULL	NULL
TMA Blocker Split Nostril Olfactometer_Pilot 2	54	1	<?xml version="1.0"?>\n<Clock xmlns:dt="urn:schemas-microsoft-com:datatypes"><Description dt:dt="string">E-Prime Primary Realtime Clock</Description><StartTime><Timestamp dt:dt="int">0</Timestamp><DateUtc dt:dt="string">2016-07-27T15:00:23Z</DateUtc></StartTime><FrequencyChanges><FrequencyChange><Frequency dt:dt="r8">2793160000</Frequency><Timestamp dt:dt="r8">7.229017280322E+15</Timestamp><Current dt:dt="r8">0</Current><DateUtc dt:dt="string">2016-07-27T15:00:23Z</DateUtc></FrequencyChange></FrequencyChanges></Clock>\n	TMA Blocker Split Nostril Olfactometer_Pilot 2-54-1	74.911	1.0.0.1473	1	0		-999999	12035	4091468	0	q	291150	4382618	-554130665	2.0.10.242	2.0.10.242	07-27-2016	7/27/2016 3:00:23 PM	11:00:23	2.0.10.147	18	FRUIT LOOPS	NULL	NULL	BlockProcB	NULL	Test2	NULL	NULL	NULL	NULL	NULL	NULL	NULL	NULL	NULL	1	1	1	No	NULL	NULL	NULL	NULL	NULL	NULL	8	NULL	NULL	NULL	NULL	TMA+Linalool	129	24	NULL	NULL	NULL	NULL	TrialProc2	NULL	NULL	NULL	NULL	NULL	NULL	NULL	NULL	NULL	NULL	NULL	NULL	NULL	NULL	NULL	NULL	Blank	TrialList2	NULL	NULL	NULL	NULL	NULL	NULL	NULL	NULL	NULL	5	1	8	2	NULL	NULL	1	8	8	NULL	Fruit Loop	577	576	NULL	NULL	NULL	NULL	NULL	NULL	NULL	NULL	NULL	1	NULL	NULL	NULL	ExperimentProc	How intense is the odor?	Experiment	NULL	NULL	NULL	NULL	NULL	NULL	NULL	NULL	?
TMA Blocker Split Nostril Olfactometer_Pilot 2	54	1	<?xml version="1.0"?>\n<Clock xmlns:dt="urn:schemas-microsoft-com:datatypes"><Description dt:dt="string">E-Prime Primary Realtime Clock</Description><StartTime><Timestamp dt:dt="int">0</Timestamp><DateUtc dt:dt="string">2016-07-27T15:00:23Z</DateUtc></StartTime><FrequencyChanges><FrequencyChange><Frequency dt:dt="r8">2793160000</Frequency><Timestamp dt:dt="r8">7.229017280322E+15</Timestamp><Current dt:dt="r8">0</Current><DateUtc dt:dt="string">2016-07-27T15:00:23Z</DateUtc></FrequencyChange></FrequencyChanges></Clock>\n	TMA Blocker Split Nostril Olfactometer_Pilot 2-54-1	74.911	1.0.0.1473	1	0		-999999	12035	4091468	0	q	291150	4382618	-554130665	2.0.10.242	2.0.10.242	07-27-2016	7/27/2016 3:00:23 PM	11:00:23	2.0.10.147	18	FRUIT LOOPS	NULL	NULL	BlockProcB	NULL	Test2	NULL	NULL	NULL	NULL	NULL	NULL	NULL	NULL	NULL	1	1	1	No	NULL	NULL	NULL	NULL	NULL	NULL	8	NULL	NULL	NULL	NULL	TMA+Linalool	129	24	NULL	NULL	NULL	NULL	TrialProc2	NULL	NULL	NULL	NULL	NULL	NULL	NULL	NULL	NULL	NULL	NULL	NULL	NULL	NULL	NULL	NULL	Blank	TrialList2	NULL	NULL	NULL	NULL	NULL	NULL	NULL	NULL	NULL	5	1	8	3	Beautiful Sin	2	NULL	NULL	NULL	Female	NULL	NULL	NULL	0	2	-999999	13	2382277	0	1	997	2383274	NULL	NULL	NULL	NULL	SongTrial2	NULL	SoundList2	Spark of Ignition	S:\mainland\Projects\TMA blocker\E-Prime\song28.wav	NULL	NULL	NULL	8	1	8	NULL
TMA Blocker Split Nostril Olfactometer_Pilot 2	54	1	<?xml version="1.0"?>\n<Clock xmlns:dt="urn:schemas-microsoft-com:datatypes"><Description dt:dt="string">E-Prime Primary Realtime Clock</Description><StartTime><Timestamp dt:dt="int">0</Timestamp><DateUtc dt:dt="string">2016-07-27T15:00:23Z</DateUtc></StartTime><FrequencyChanges><FrequencyChange><Frequency dt:dt="r8">2793160000</Frequency><Timestamp dt:dt="r8">7.229017280322E+15</Timestamp><Current dt:dt="r8">0</Current><DateUtc dt:dt="string">2016-07-27T15:00:23Z</DateUtc></FrequencyChange></FrequencyChanges></Clock>\n	TMA Blocker Split Nostril Olfactometer_Pilot 2-54-1	74.911	1.0.0.1473	1	0		-999999	12035	4091468	0	q	291150	4382618	-554130665	2.0.10.242	2.0.10.242	07-27-2016	7/27/2016 3:00:23 PM	11:00:23	2.0.10.147	18	FRUIT LOOPS	NULL	NULL	BlockProcB	NULL	Test2	NULL	NULL	NULL	NULL	NULL	NULL	NULL	NULL	NULL	1	1	1	No	NULL	NULL	NULL	NULL	NULL	NULL	9	NULL	NULL	NULL	NULL	Blank	66	20	NULL	NULL	NULL	NULL	TrialProc2	NULL	NULL	NULL	NULL	NULL	NULL	NULL	NULL	NULL	NULL	NULL	NULL	NULL	NULL	NULL	NULL	Linalool	TrialList2	NULL	NULL	NULL	NULL	NULL	NULL	NULL	NULL	NULL	4	1	9	1	NULL	NULL	NULL	NULL	NULL	NULL	NULL	NULL	NULL	NULL	NULL	NULL	NULL	NULL	NULL	NULL	NULL	NULL	NULL	1	16	16	PrepareProc	NULL	Prepare	NULL	NULL	NULL	NULL	NULL	NULL	NULL	NULL	NULL
TMA Blocker Split Nostril Olfactometer_Pilot 2	54	1	<?xml version="1.0"?>\n<Clock xmlns:dt="urn:schemas-microsoft-com:datatypes"><Description dt:dt="string">E-Prime Primary Realtime Clock</Description><StartTime><Timestamp dt:dt="int">0</Timestamp><DateUtc dt:dt="string">2016-07-27T15:00:23Z</DateUtc></StartTime><FrequencyChanges><FrequencyChange><Frequency dt:dt="r8">2793160000</Frequency><Timestamp dt:dt="r8">7.229017280322E+15</Timestamp><Current dt:dt="r8">0</Current><DateUtc dt:dt="string">2016-07-27T15:00:23Z</DateUtc></FrequencyChange></FrequencyChanges></Clock>\n	TMA Blocker Split Nostril Olfactometer_Pilot 2-54-1	74.911	1.0.0.1473	1	0		-999999	12035	4091468	0	q	291150	4382618	-554130665	2.0.10.242	2.0.10.242	07-27-2016	7/27/2016 3:00:23 PM	11:00:23	2.0.10.147	18	FRUIT LOOPS	NULL	NULL	BlockProcB	NULL	Test2	NULL	NULL	NULL	NULL	NULL	NULL	NULL	NULL	NULL	1	1	1	No	NULL	NULL	NULL	NULL	NULL	NULL	9	NULL	NULL	NULL	NULL	Blank	66	20	NULL	NULL	NULL	NULL	TrialProc2	NULL	NULL	NULL	NULL	NULL	NULL	NULL	NULL	NULL	NULL	NULL	NULL	NULL	NULL	NULL	NULL	Linalool	TrialList2	NULL	NULL	NULL	NULL	NULL	NULL	NULL	NULL	NULL	4	1	9	2	NULL	NULL	1	9	9	NULL	Fruit Loop	561	578	NULL	NULL	NULL	NULL	NULL	NULL	NULL	NULL	NULL	1	NULL	NULL	NULL	ExperimentProc	How intense is the odor?	Experiment	NULL	NULL	NULL	NULL	NULL	NULL	NULL	NULL	?
TMA Blocker Split Nostril Olfactometer_Pilot 2	54	1	<?xml version="1.0"?>\n<Clock xmlns:dt="urn:schemas-microsoft-com:datatypes"><Description dt:dt="string">E-Prime Primary Realtime Clock</Description><StartTime><Timestamp dt:dt="int">0</Timestamp><DateUtc dt:dt="string">2016-07-27T15:00:23Z</DateUtc></StartTime><FrequencyChanges><FrequencyChange><Frequency dt:dt="r8">2793160000</Frequency><Timestamp dt:dt="r8">7.229017280322E+15</Timestamp><Current dt:dt="r8">0</Current><DateUtc dt:dt="string">2016-07-27T15:00:23Z</DateUtc></FrequencyChange></FrequencyChanges></Clock>\n	TMA Blocker Split Nostril Olfactometer_Pilot 2-54-1	74.911	1.0.0.1473	1	0		-999999	12035	4091468	0	q	291150	4382618	-554130665	2.0.10.242	2.0.10.242	07-27-2016	7/27/2016 3:00:23 PM	11:00:23	2.0.10.147	18	FRUIT LOOPS	NULL	NULL	BlockProcB	NULL	Test2	NULL	NULL	NULL	NULL	NULL	NULL	NULL	NULL	NULL	1	1	1	No	NULL	NULL	NULL	NULL	NULL	NULL	9	NULL	NULL	NULL	NULL	Blank	66	20	NULL	NULL	NULL	NULL	TrialProc2	NULL	NULL	NULL	NULL	NULL	NULL	NULL	NULL	NULL	NULL	NULL	NULL	NULL	NULL	NULL	NULL	Linalool	TrialList2	NULL	NULL	NULL	NULL	NULL	NULL	NULL	NULL	NULL	4	1	9	3	Hole	2	NULL	NULL	NULL	Female	NULL	NULL	NULL	0	2	-999999	13	2429639	0	1	1617	2431256	NULL	NULL	NULL	NULL	SongTrial2	NULL	SoundList2	Skinny Little B****	S:\mainland\Projects\TMA blocker\E-Prime\song25.wav	NULL	NULL	NULL	5	1	9	NULL
TMA Blocker Split Nostril Olfactometer_Pilot 2	54	1	<?xml version="1.0"?>\n<Clock xmlns:dt="urn:schemas-microsoft-com:datatypes"><Description dt:dt="string">E-Prime Primary Realtime Clock</Description><StartTime><Timestamp dt:dt="int">0</Timestamp><DateUtc dt:dt="string">2016-07-27T15:00:23Z</DateUtc></StartTime><FrequencyChanges><FrequencyChange><Frequency dt:dt="r8">2793160000</Frequency><Timestamp dt:dt="r8">7.229017280322E+15</Timestamp><Current dt:dt="r8">0</Current><DateUtc dt:dt="string">2016-07-27T15:00:23Z</DateUtc></FrequencyChange></FrequencyChanges></Clock>\n	TMA Blocker Split Nostril Olfactometer_Pilot 2-54-1	74.911	1.0.0.1473	1	0		-999999	12035	4091468	0	q	291150	4382618	-554130665	2.0.10.242	2.0.10.242	07-27-2016	7/27/2016 3:00:23 PM	11:00:23	2.0.10.147	18	FRUIT LOOPS	NULL	NULL	BlockProcB	NULL	Test2	NULL	NULL	NULL	NULL	NULL	NULL	NULL	NULL	NULL	1	1	1	No	NULL	NULL	NULL	NULL	NULL	NULL	10	NULL	NULL	NULL	NULL	Blank	66	24	NULL	NULL	NULL	NULL	TrialProc2	NULL	NULL	NULL	NULL	NULL	NULL	NULL	NULL	NULL	NULL	NULL	NULL	NULL	NULL	NULL	NULL	Blank	TrialList2	NULL	NULL	NULL	NULL	NULL	NULL	NULL	NULL	NULL	9	2	10	1	NULL	NULL	NULL	NULL	NULL	NULL	NULL	NULL	NULL	NULL	NULL	NULL	NULL	NULL	NULL	NULL	NULL	NULL	NULL	1	17	17	PrepareProc	NULL	Prepare	NULL	NULL	NULL	NULL	NULL	NULL	NULL	NULL	NULL
TMA Blocker Split Nostril Olfactometer_Pilot 2	54	1	<?xml version="1.0"?>\n<Clock xmlns:dt="urn:schemas-microsoft-com:datatypes"><Description dt:dt="string">E-Prime Primary Realtime Clock</Description><StartTime><Timestamp dt:dt="int">0</Timestamp><DateUtc dt:dt="string">2016-07-27T15:00:23Z</DateUtc></StartTime><FrequencyChanges><FrequencyChange><Frequency dt:dt="r8">2793160000</Frequency><Timestamp dt:dt="r8">7.229017280322E+15</Timestamp><Current dt:dt="r8">0</Current><DateUtc dt:dt="string">2016-07-27T15:00:23Z</DateUtc></FrequencyChange></FrequencyChanges></Clock>\n	TMA Blocker Split Nostril Olfactometer_Pilot 2-54-1	74.911	1.0.0.1473	1	0		-999999	12035	4091468	0	q	291150	4382618	-554130665	2.0.10.242	2.0.10.242	07-27-2016	7/27/2016 3:00:23 PM	11:00:23	2.0.10.147	18	FRUIT LOOPS	NULL	NULL	BlockProcB	NULL	Test2	NULL	NULL	NULL	NULL	NULL	NULL	NULL	NULL	NULL	1	1	1	No	NULL	NULL	NULL	NULL	NULL	NULL	10	NULL	NULL	NULL	NULL	Blank	66	24	NULL	NULL	NULL	NULL	TrialProc2	NULL	NULL	NULL	NULL	NULL	NULL	NULL	NULL	NULL	NULL	NULL	NULL	NULL	NULL	NULL	NULL	Blank	TrialList2	NULL	NULL	NULL	NULL	NULL	NULL	NULL	NULL	NULL	9	2	10	2	NULL	NULL	1	10	10	NULL	Fruit Loop	576	578	NULL	NULL	NULL	NULL	NULL	NULL	NULL	NULL	NULL	1	NULL	NULL	NULL	ExperimentProc	How intense is the odor?	Experiment	NULL	NULL	NULL	NULL	NULL	NULL	NULL	NULL	?
TMA Blocker Split Nostril Olfactometer_Pilot 2	54	1	<?xml version="1.0"?>\n<Clock xmlns:dt="urn:schemas-microsoft-com:datatypes"><Description dt:dt="string">E-Prime Primary Realtime Clock</Description><StartTime><Timestamp dt:dt="int">0</Timestamp><DateUtc dt:dt="string">2016-07-27T15:00:23Z</DateUtc></StartTime><FrequencyChanges><FrequencyChange><Frequency dt:dt="r8">2793160000</Frequency><Timestamp dt:dt="r8">7.229017280322E+15</Timestamp><Current dt:dt="r8">0</Current><DateUtc dt:dt="string">2016-07-27T15:00:23Z</DateUtc></FrequencyChange></FrequencyChanges></Clock>\n	TMA Blocker Split Nostril Olfactometer_Pilot 2-54-1	74.911	1.0.0.1473	1	0		-999999	12035	4091468	0	q	291150	4382618	-554130665	2.0.10.242	2.0.10.242	07-27-2016	7/27/2016 3:00:23 PM	11:00:23	2.0.10.147	18	FRUIT LOOPS	NULL	NULL	BlockProcB	NULL	Test2	NULL	NULL	NULL	NULL	NULL	NULL	NULL	NULL	NULL	1	1	1	No	NULL	NULL	NULL	NULL	NULL	NULL	10	NULL	NULL	NULL	NULL	Blank	66	24	NULL	NULL	NULL	NULL	TrialProc2	NULL	NULL	NULL	NULL	NULL	NULL	NULL	NULL	NULL	NULL	NULL	NULL	NULL	NULL	NULL	NULL	Blank	TrialList2	NULL	NULL	NULL	NULL	NULL	NULL	NULL	NULL	NULL	9	2	10	3	Liz Phair	2	NULL	NULL	NULL	Female	NULL	NULL	NULL	1	2	-999999	13	2476655	0	2	1848	2478503	NULL	NULL	NULL	NULL	SongTrial2	NULL	SoundList2	Never Said	S:\mainland\Projects\TMA blocker\E-Prime\song32.wav	NULL	NULL	NULL	12	1	10	NULL
TMA Blocker Split Nostril Olfactometer_Pilot 2	54	1	<?xml version="1.0"?>\n<Clock xmlns:dt="urn:schemas-microsoft-com:datatypes"><Description dt:dt="string">E-Prime Primary Realtime Clock</Description><StartTime><Timestamp dt:dt="int">0</Timestamp><DateUtc dt:dt="string">2016-07-27T15:00:23Z</DateUtc></StartTime><FrequencyChanges><FrequencyChange><Frequency dt:dt="r8">2793160000</Frequency><Timestamp dt:dt="r8">7.229017280322E+15</Timestamp><Current dt:dt="r8">0</Current><DateUtc dt:dt="string">2016-07-27T15:00:23Z</DateUtc></FrequencyChange></FrequencyChanges></Clock>\n	TMA Blocker Split Nostril Olfactometer_Pilot 2-54-1	74.911	1.0.0.1473	1	0		-999999	12035	4091468	0	q	291150	4382618	-554130665	2.0.10.242	2.0.10.242	07-27-2016	7/27/2016 3:00:23 PM	11:00:23	2.0.10.147	18	FRUIT LOOPS	NULL	NULL	BlockProcB	NULL	Test2	NULL	NULL	NULL	NULL	NULL	NULL	NULL	NULL	NULL	1	1	1	No	NULL	NULL	NULL	NULL	NULL	NULL	11	NULL	NULL	NULL	NULL	Linalool	192	9	NULL	NULL	NULL	NULL	TrialProc2	NULL	NULL	NULL	NULL	NULL	NULL	NULL	NULL	NULL	NULL	NULL	NULL	NULL	NULL	NULL	NULL	TMA	TrialList2	NULL	NULL	NULL	NULL	NULL	NULL	NULL	NULL	NULL	8	2	11	1	NULL	NULL	NULL	NULL	NULL	NULL	NULL	NULL	NULL	NULL	NULL	NULL	NULL	NULL	NULL	NULL	NULL	NULL	NULL	1	18	18	PrepareProc	NULL	Prepare	NULL	NULL	NULL	NULL	NULL	NULL	NULL	NULL	NULL
TMA Blocker Split Nostril Olfactometer_Pilot 2	54	1	<?xml version="1.0"?>\n<Clock xmlns:dt="urn:schemas-microsoft-com:datatypes"><Description dt:dt="string">E-Prime Primary Realtime Clock</Description><StartTime><Timestamp dt:dt="int">0</Timestamp><DateUtc dt:dt="string">2016-07-27T15:00:23Z</DateUtc></StartTime><FrequencyChanges><FrequencyChange><Frequency dt:dt="r8">2793160000</Frequency><Timestamp dt:dt="r8">7.229017280322E+15</Timestamp><Current dt:dt="r8">0</Current><DateUtc dt:dt="string">2016-07-27T15:00:23Z</DateUtc></FrequencyChange></FrequencyChanges></Clock>\n	TMA Blocker Split Nostril Olfactometer_Pilot 2-54-1	74.911	1.0.0.1473	1	0		-999999	12035	4091468	0	q	291150	4382618	-554130665	2.0.10.242	2.0.10.242	07-27-2016	7/27/2016 3:00:23 PM	11:00:23	2.0.10.147	18	FRUIT LOOPS	NULL	NULL	BlockProcB	NULL	Test2	NULL	NULL	NULL	NULL	NULL	NULL	NULL	NULL	NULL	1	1	1	No	NULL	NULL	NULL	NULL	NULL	NULL	11	NULL	NULL	NULL	NULL	Linalool	192	9	NULL	NULL	NULL	NULL	TrialProc2	NULL	NULL	NULL	NULL	NULL	NULL	NULL	NULL	NULL	NULL	NULL	NULL	NULL	NULL	NULL	NULL	TMA	TrialList2	NULL	NULL	NULL	NULL	NULL	NULL	NULL	NULL	NULL	8	2	11	2	NULL	NULL	1	11	11	NULL	Fruit Loop	578	445	NULL	NULL	NULL	NULL	NULL	NULL	NULL	NULL	NULL	1	NULL	NULL	NULL	ExperimentProc	How intense is the odor?	Experiment	NULL	NULL	NULL	NULL	NULL	NULL	NULL	NULL	?
TMA Blocker Split Nostril Olfactometer_Pilot 2	54	1	<?xml version="1.0"?>\n<Clock xmlns:dt="urn:schemas-microsoft-com:datatypes"><Description dt:dt="string">E-Prime Primary Realtime Clock</Description><StartTime><Timestamp dt:dt="int">0</Timestamp><DateUtc dt:dt="string">2016-07-27T15:00:23Z</DateUtc></StartTime><FrequencyChanges><FrequencyChange><Frequency dt:dt="r8">2793160000</Frequency><Timestamp dt:dt="r8">7.229017280322E+15</Timestamp><Current dt:dt="r8">0</Current><DateUtc dt:dt="string">2016-07-27T15:00:23Z</DateUtc></FrequencyChange></FrequencyChanges></Clock>\n	TMA Blocker Split Nostril Olfactometer_Pilot 2-54-1	74.911	1.0.0.1473	1	0		-999999	12035	4091468	0	q	291150	4382618	-554130665	2.0.10.242	2.0.10.242	07-27-2016	7/27/2016 3:00:23 PM	11:00:23	2.0.10.147	18	FRUIT LOOPS	NULL	NULL	BlockProcB	NULL	Test2	NULL	NULL	NULL	NULL	NULL	NULL	NULL	NULL	NULL	1	1	1	No	NULL	NULL	NULL	NULL	NULL	NULL	11	NULL	NULL	NULL	NULL	Linalool	192	9	NULL	NULL	NULL	NULL	TrialProc2	NULL	NULL	NULL	NULL	NULL	NULL	NULL	NULL	NULL	NULL	NULL	NULL	NULL	NULL	NULL	NULL	TMA	TrialList2	NULL	NULL	NULL	NULL	NULL	NULL	NULL	NULL	NULL	8	2	11	3	Coheed and Cambria	1	NULL	NULL	NULL	Male	NULL	NULL	NULL	1	1	-999999	13	2527675	0	1	5098	2532773	NULL	NULL	NULL	NULL	SongTrial2	NULL	SoundList2	Wake Up	S:\mainland\Projects\TMA blocker\E-Prime\song29.wav	NULL	NULL	NULL	9	1	11	NULL
TMA Blocker Split Nostril Olfactometer_Pilot 2	54	1	<?xml version="1.0"?>\n<Clock xmlns:dt="urn:schemas-microsoft-com:datatypes"><Description dt:dt="string">E-Prime Primary Realtime Clock</Description><StartTime><Timestamp dt:dt="int">0</Timestamp><DateUtc dt:dt="string">2016-07-27T15:00:23Z</DateUtc></StartTime><FrequencyChanges><FrequencyChange><Frequency dt:dt="r8">2793160000</Frequency><Timestamp dt:dt="r8">7.229017280322E+15</Timestamp><Current dt:dt="r8">0</Current><DateUtc dt:dt="string">2016-07-27T15:00:23Z</DateUtc></FrequencyChange></FrequencyChanges></Clock>\n	TMA Blocker Split Nostril Olfactometer_Pilot 2-54-1	74.911	1.0.0.1473	1	0		-999999	12035	4091468	0	q	291150	4382618	-554130665	2.0.10.242	2.0.10.242	07-27-2016	7/27/2016 3:00:23 PM	11:00:23	2.0.10.147	18	FRUIT LOOPS	NULL	NULL	BlockProcB	NULL	Test2	NULL	NULL	NULL	NULL	NULL	NULL	NULL	NULL	NULL	1	1	1	No	NULL	NULL	NULL	NULL	NULL	NULL	12	NULL	NULL	NULL	NULL	TMA+Linalool	129	24	NULL	NULL	NULL	NULL	TrialProc2	NULL	NULL	NULL	NULL	NULL	NULL	NULL	NULL	NULL	NULL	NULL	NULL	NULL	NULL	NULL	NULL	Blank	TrialList2	NULL	NULL	NULL	NULL	NULL	NULL	NULL	NULL	NULL	5	2	12	1	NULL	NULL	NULL	NULL	NULL	NULL	NULL	NULL	NULL	NULL	NULL	NULL	NULL	NULL	NULL	NULL	NULL	NULL	NULL	1	19	19	PrepareProc	NULL	Prepare	NULL	NULL	NULL	NULL	NULL	NULL	NULL	NULL	NULL
TMA Blocker Split Nostril Olfactometer_Pilot 2	54	1	<?xml version="1.0"?>\n<Clock xmlns:dt="urn:schemas-microsoft-com:datatypes"><Description dt:dt="string">E-Prime Primary Realtime Clock</Description><StartTime><Timestamp dt:dt="int">0</Timestamp><DateUtc dt:dt="string">2016-07-27T15:00:23Z</DateUtc></StartTime><FrequencyChanges><FrequencyChange><Frequency dt:dt="r8">2793160000</Frequency><Timestamp dt:dt="r8">7.229017280322E+15</Timestamp><Current dt:dt="r8">0</Current><DateUtc dt:dt="string">2016-07-27T15:00:23Z</DateUtc></FrequencyChange></FrequencyChanges></Clock>\n	TMA Blocker Split Nostril Olfactometer_Pilot 2-54-1	74.911	1.0.0.1473	1	0		-999999	12035	4091468	0	q	291150	4382618	-554130665	2.0.10.242	2.0.10.242	07-27-2016	7/27/2016 3:00:23 PM	11:00:23	2.0.10.147	18	FRUIT LOOPS	NULL	NULL	BlockProcB	NULL	Test2	NULL	NULL	NULL	NULL	NULL	NULL	NULL	NULL	NULL	1	1	1	No	NULL	NULL	NULL	NULL	NULL	NULL	12	NULL	NULL	NULL	NULL	TMA+Linalool	129	24	NULL	NULL	NULL	NULL	TrialProc2	NULL	NULL	NULL	NULL	NULL	NULL	NULL	NULL	NULL	NULL	NULL	NULL	NULL	NULL	NULL	NULL	Blank	TrialList2	NULL	NULL	NULL	NULL	NULL	NULL	NULL	NULL	NULL	5	2	12	2	NULL	NULL	1	12	12	NULL	Fruit Loop	580	527	NULL	NULL	NULL	NULL	NULL	NULL	NULL	NULL	NULL	1	NULL	NULL	NULL	ExperimentProc	How intense is the odor?	Experiment	NULL	NULL	NULL	NULL	NULL	NULL	NULL	NULL	?
TMA Blocker Split Nostril Olfactometer_Pilot 2	54	1	<?xml version="1.0"?>\n<Clock xmlns:dt="urn:schemas-microsoft-com:datatypes"><Description dt:dt="string">E-Prime Primary Realtime Clock</Description><StartTime><Timestamp dt:dt="int">0</Timestamp><DateUtc dt:dt="string">2016-07-27T15:00:23Z</DateUtc></StartTime><FrequencyChanges><FrequencyChange><Frequency dt:dt="r8">2793160000</Frequency><Timestamp dt:dt="r8">7.229017280322E+15</Timestamp><Current dt:dt="r8">0</Current><DateUtc dt:dt="string">2016-07-27T15:00:23Z</DateUtc></FrequencyChange></FrequencyChanges></Clock>\n	TMA Blocker Split Nostril Olfactometer_Pilot 2-54-1	74.911	1.0.0.1473	1	0		-999999	12035	4091468	0	q	291150	4382618	-554130665	2.0.10.242	2.0.10.242	07-27-2016	7/27/2016 3:00:23 PM	11:00:23	2.0.10.147	18	FRUIT LOOPS	NULL	NULL	BlockProcB	NULL	Test2	NULL	NULL	NULL	NULL	NULL	NULL	NULL	NULL	NULL	1	1	1	No	NULL	NULL	NULL	NULL	NULL	NULL	12	NULL	NULL	NULL	NULL	TMA+Linalool	129	24	NULL	NULL	NULL	NULL	TrialProc2	NULL	NULL	NULL	NULL	NULL	NULL	NULL	NULL	NULL	NULL	NULL	NULL	NULL	NULL	NULL	NULL	Blank	TrialList2	NULL	NULL	NULL	NULL	NULL	NULL	NULL	NULL	NULL	5	2	12	3	Jimmy Somerville	1	NULL	NULL	NULL	Male	NULL	NULL	NULL	0	1	-1	13	2580230	10025		0	0	NULL	NULL	NULL	NULL	SongTrial2	NULL	SoundList2	The Communards - Never Can Say Goodbye	S:\mainland\Projects\TMA blocker\E-Prime\song40.wav	NULL	NULL	NULL	20	1	12	NULL
TMA Blocker Split Nostril Olfactometer_Pilot 2	54	1	<?xml version="1.0"?>\n<Clock xmlns:dt="urn:schemas-microsoft-com:datatypes"><Description dt:dt="string">E-Prime Primary Realtime Clock</Description><StartTime><Timestamp dt:dt="int">0</Timestamp><DateUtc dt:dt="string">2016-07-27T15:00:23Z</DateUtc></StartTime><FrequencyChanges><FrequencyChange><Frequency dt:dt="r8">2793160000</Frequency><Timestamp dt:dt="r8">7.229017280322E+15</Timestamp><Current dt:dt="r8">0</Current><DateUtc dt:dt="string">2016-07-27T15:00:23Z</DateUtc></FrequencyChange></FrequencyChanges></Clock>\n	TMA Blocker Split Nostril Olfactometer_Pilot 2-54-1	74.911	1.0.0.1473	1	0		-999999	12035	4091468	0	q	291150	4382618	-554130665	2.0.10.242	2.0.10.242	07-27-2016	7/27/2016 3:00:23 PM	11:00:23	2.0.10.147	18	FRUIT LOOPS	NULL	NULL	BlockProcB	NULL	Test2	NULL	NULL	NULL	NULL	NULL	NULL	NULL	NULL	NULL	1	1	1	No	NULL	NULL	NULL	NULL	NULL	NULL	13	NULL	NULL	NULL	NULL	TMA	3	20	NULL	NULL	NULL	NULL	TrialProc2	NULL	NULL	NULL	NULL	NULL	NULL	NULL	NULL	NULL	NULL	NULL	NULL	NULL	NULL	NULL	NULL	Linalool	TrialList2	NULL	NULL	NULL	NULL	NULL	NULL	NULL	NULL	NULL	7	2	13	1	NULL	NULL	NULL	NULL	NULL	NULL	NULL	NULL	NULL	NULL	NULL	NULL	NULL	NULL	NULL	NULL	NULL	NULL	NULL	1	20	20	PrepareProc	NULL	Prepare	NULL	NULL	NULL	NULL	NULL	NULL	NULL	NULL	NULL
TMA Blocker Split Nostril Olfactometer_Pilot 2	54	1	<?xml version="1.0"?>\n<Clock xmlns:dt="urn:schemas-microsoft-com:datatypes"><Description dt:dt="string">E-Prime Primary Realtime Clock</Description><StartTime><Timestamp dt:dt="int">0</Timestamp><DateUtc dt:dt="string">2016-07-27T15:00:23Z</DateUtc></StartTime><FrequencyChanges><FrequencyChange><Frequency dt:dt="r8">2793160000</Frequency><Timestamp dt:dt="r8">7.229017280322E+15</Timestamp><Current dt:dt="r8">0</Current><DateUtc dt:dt="string">2016-07-27T15:00:23Z</DateUtc></FrequencyChange></FrequencyChanges></Clock>\n	TMA Blocker Split Nostril Olfactometer_Pilot 2-54-1	74.911	1.0.0.1473	1	0		-999999	12035	4091468	0	q	291150	4382618	-554130665	2.0.10.242	2.0.10.242	07-27-2016	7/27/2016 3:00:23 PM	11:00:23	2.0.10.147	18	FRUIT LOOPS	NULL	NULL	BlockProcB	NULL	Test2	NULL	NULL	NULL	NULL	NULL	NULL	NULL	NULL	NULL	1	1	1	No	NULL	NULL	NULL	NULL	NULL	NULL	13	NULL	NULL	NULL	NULL	TMA	3	20	NULL	NULL	NULL	NULL	TrialProc2	NULL	NULL	NULL	NULL	NULL	NULL	NULL	NULL	NULL	NULL	NULL	NULL	NULL	NULL	NULL	NULL	Linalool	TrialList2	NULL	NULL	NULL	NULL	NULL	NULL	NULL	NULL	NULL	7	2	13	2	NULL	NULL	1	13	13	NULL	Fruit Loop	578	545	NULL	NULL	NULL	NULL	NULL	NULL	NULL	NULL	NULL	1	NULL	NULL	NULL	ExperimentProc	How intense is the odor?	Experiment	NULL	NULL	NULL	NULL	NULL	NULL	NULL	NULL	?
TMA Blocker Split Nostril Olfactometer_Pilot 2	54	1	<?xml version="1.0"?>\n<Clock xmlns:dt="urn:schemas-microsoft-com:datatypes"><Description dt:dt="string">E-Prime Primary Realtime Clock</Description><StartTime><Timestamp dt:dt="int">0</Timestamp><DateUtc dt:dt="string">2016-07-27T15:00:23Z</DateUtc></StartTime><FrequencyChanges><FrequencyChange><Frequency dt:dt="r8">2793160000</Frequency><Timestamp dt:dt="r8">7.229017280322E+15</Timestamp><Current dt:dt="r8">0</Current><DateUtc dt:dt="string">2016-07-27T15:00:23Z</DateUtc></FrequencyChange></FrequencyChanges></Clock>\n	TMA Blocker Split Nostril Olfactometer_Pilot 2-54-1	74.911	1.0.0.1473	1	0		-999999	12035	4091468	0	q	291150	4382618	-554130665	2.0.10.242	2.0.10.242	07-27-2016	7/27/2016 3:00:23 PM	11:00:23	2.0.10.147	18	FRUIT LOOPS	NULL	NULL	BlockProcB	NULL	Test2	NULL	NULL	NULL	NULL	NULL	NULL	NULL	NULL	NULL	1	1	1	No	NULL	NULL	NULL	NULL	NULL	NULL	13	NULL	NULL	NULL	NULL	TMA	3	20	NULL	NULL	NULL	NULL	TrialProc2	NULL	NULL	NULL	NULL	NULL	NULL	NULL	NULL	NULL	NULL	NULL	NULL	NULL	NULL	NULL	NULL	Linalool	TrialList2	NULL	NULL	NULL	NULL	NULL	NULL	NULL	NULL	NULL	7	2	13	3	Roy Khan	1	NULL	NULL	NULL	Male	NULL	NULL	NULL	1	1	-999999	13	2630810	0	1	1128	2631938	NULL	NULL	NULL	NULL	SongTrial2	NULL	SoundList2	Kamelot - Center of the Universe	S:\mainland\Projects\TMA blocker\E-Prime\song35.wav	NULL	NULL	NULL	15	1	13	NULL
TMA Blocker Split Nostril Olfactometer_Pilot 2	54	1	<?xml version="1.0"?>\n<Clock xmlns:dt="urn:schemas-microsoft-com:datatypes"><Description dt:dt="string">E-Prime Primary Realtime Clock</Description><StartTime><Timestamp dt:dt="int">0</Timestamp><DateUtc dt:dt="string">2016-07-27T15:00:23Z</DateUtc></StartTime><FrequencyChanges><FrequencyChange><Frequency dt:dt="r8">2793160000</Frequency><Timestamp dt:dt="r8">7.229017280322E+15</Timestamp><Current dt:dt="r8">0</Current><DateUtc dt:dt="string">2016-07-27T15:00:23Z</DateUtc></FrequencyChange></FrequencyChanges></Clock>\n	TMA Blocker Split Nostril Olfactometer_Pilot 2-54-1	74.911	1.0.0.1473	1	0		-999999	12035	4091468	0	q	291150	4382618	-554130665	2.0.10.242	2.0.10.242	07-27-2016	7/27/2016 3:00:23 PM	11:00:23	2.0.10.147	18	FRUIT LOOPS	NULL	NULL	BlockProcB	NULL	Test2	NULL	NULL	NULL	NULL	NULL	NULL	NULL	NULL	NULL	1	1	1	No	NULL	NULL	NULL	NULL	NULL	NULL	14	NULL	NULL	NULL	NULL	Blank	66	20	NULL	NULL	NULL	NULL	TrialProc2	NULL	NULL	NULL	NULL	NULL	NULL	NULL	NULL	NULL	NULL	NULL	NULL	NULL	NULL	NULL	NULL	Linalool	TrialList2	NULL	NULL	NULL	NULL	NULL	NULL	NULL	NULL	NULL	4	2	14	1	NULL	NULL	NULL	NULL	NULL	NULL	NULL	NULL	NULL	NULL	NULL	NULL	NULL	NULL	NULL	NULL	NULL	NULL	NULL	1	21	21	PrepareProc	NULL	Prepare	NULL	NULL	NULL	NULL	NULL	NULL	NULL	NULL	NULL
TMA Blocker Split Nostril Olfactometer_Pilot 2	54	1	<?xml version="1.0"?>\n<Clock xmlns:dt="urn:schemas-microsoft-com:datatypes"><Description dt:dt="string">E-Prime Primary Realtime Clock</Description><StartTime><Timestamp dt:dt="int">0</Timestamp><DateUtc dt:dt="string">2016-07-27T15:00:23Z</DateUtc></StartTime><FrequencyChanges><FrequencyChange><Frequency dt:dt="r8">2793160000</Frequency><Timestamp dt:dt="r8">7.229017280322E+15</Timestamp><Current dt:dt="r8">0</Current><DateUtc dt:dt="string">2016-07-27T15:00:23Z</DateUtc></FrequencyChange></FrequencyChanges></Clock>\n	TMA Blocker Split Nostril Olfactometer_Pilot 2-54-1	74.911	1.0.0.1473	1	0		-999999	12035	4091468	0	q	291150	4382618	-554130665	2.0.10.242	2.0.10.242	07-27-2016	7/27/2016 3:00:23 PM	11:00:23	2.0.10.147	18	FRUIT LOOPS	NULL	NULL	BlockProcB	NULL	Test2	NULL	NULL	NULL	NULL	NULL	NULL	NULL	NULL	NULL	1	1	1	No	NULL	NULL	NULL	NULL	NULL	NULL	14	NULL	NULL	NULL	NULL	Blank	66	20	NULL	NULL	NULL	NULL	TrialProc2	NULL	NULL	NULL	NULL	NULL	NULL	NULL	NULL	NULL	NULL	NULL	NULL	NULL	NULL	NULL	NULL	Linalool	TrialList2	NULL	NULL	NULL	NULL	NULL	NULL	NULL	NULL	NULL	4	2	14	2	NULL	NULL	1	14	14	NULL	Fruit Loop	563	577	NULL	NULL	NULL	NULL	NULL	NULL	NULL	NULL	NULL	1	NULL	NULL	NULL	ExperimentProc	How intense is the odor?	Experiment	NULL	NULL	NULL	NULL	NULL	NULL	NULL	NULL	?
TMA Blocker Split Nostril Olfactometer_Pilot 2	54	1	<?xml version="1.0"?>\n<Clock xmlns:dt="urn:schemas-microsoft-com:datatypes"><Description dt:dt="string">E-Prime Primary Realtime Clock</Description><StartTime><Timestamp dt:dt="int">0</Timestamp><DateUtc dt:dt="string">2016-07-27T15:00:23Z</DateUtc></StartTime><FrequencyChanges><FrequencyChange><Frequency dt:dt="r8">2793160000</Frequency><Timestamp dt:dt="r8">7.229017280322E+15</Timestamp><Current dt:dt="r8">0</Current><DateUtc dt:dt="string">2016-07-27T15:00:23Z</DateUtc></FrequencyChange></FrequencyChanges></Clock>\n	TMA Blocker Split Nostril Olfactometer_Pilot 2-54-1	74.911	1.0.0.1473	1	0		-999999	12035	4091468	0	q	291150	4382618	-554130665	2.0.10.242	2.0.10.242	07-27-2016	7/27/2016 3:00:23 PM	11:00:23	2.0.10.147	18	FRUIT LOOPS	NULL	NULL	BlockProcB	NULL	Test2	NULL	NULL	NULL	NULL	NULL	NULL	NULL	NULL	NULL	1	1	1	No	NULL	NULL	NULL	NULL	NULL	NULL	14	NULL	NULL	NULL	NULL	Blank	66	20	NULL	NULL	NULL	NULL	TrialProc2	NULL	NULL	NULL	NULL	NULL	NULL	NULL	NULL	NULL	NULL	NULL	NULL	NULL	NULL	NULL	NULL	Linalool	TrialList2	NULL	NULL	NULL	NULL	NULL	NULL	NULL	NULL	NULL	4	2	14	3	Tiny Tim	1	NULL	NULL	NULL	Male	NULL	NULL	NULL	0	1	-999999	13	2677211	0	2	382	2677593	NULL	NULL	NULL	NULL	SongTrial2	NULL	SoundList2	Tiptoe Through the Tulips	S:\mainland\Projects\TMA blocker\E-Prime\song24.wav	NULL	NULL	NULL	4	1	14	NULL
TMA Blocker Split Nostril Olfactometer_Pilot 2	54	1	<?xml version="1.0"?>\n<Clock xmlns:dt="urn:schemas-microsoft-com:datatypes"><Description dt:dt="string">E-Prime Primary Realtime Clock</Description><StartTime><Timestamp dt:dt="int">0</Timestamp><DateUtc dt:dt="string">2016-07-27T15:00:23Z</DateUtc></StartTime><FrequencyChanges><FrequencyChange><Frequency dt:dt="r8">2793160000</Frequency><Timestamp dt:dt="r8">7.229017280322E+15</Timestamp><Current dt:dt="r8">0</Current><DateUtc dt:dt="string">2016-07-27T15:00:23Z</DateUtc></FrequencyChange></FrequencyChanges></Clock>\n	TMA Blocker Split Nostril Olfactometer_Pilot 2-54-1	74.911	1.0.0.1473	1	0		-999999	12035	4091468	0	q	291150	4382618	-554130665	2.0.10.242	2.0.10.242	07-27-2016	7/27/2016 3:00:23 PM	11:00:23	2.0.10.147	18	FRUIT LOOPS	NULL	NULL	BlockProcB	NULL	Test2	NULL	NULL	NULL	NULL	NULL	NULL	NULL	NULL	NULL	1	1	1	No	NULL	NULL	NULL	NULL	NULL	NULL	15	NULL	NULL	NULL	NULL	Linalool	192	24	NULL	NULL	NULL	NULL	TrialProc2	NULL	NULL	NULL	NULL	NULL	NULL	NULL	NULL	NULL	NULL	NULL	NULL	NULL	NULL	NULL	NULL	Blank	TrialList2	NULL	NULL	NULL	NULL	NULL	NULL	NULL	NULL	NULL	3	2	15	1	NULL	NULL	NULL	NULL	NULL	NULL	NULL	NULL	NULL	NULL	NULL	NULL	NULL	NULL	NULL	NULL	NULL	NULL	NULL	1	22	22	PrepareProc	NULL	Prepare	NULL	NULL	NULL	NULL	NULL	NULL	NULL	NULL	NULL
TMA Blocker Split Nostril Olfactometer_Pilot 2	54	1	<?xml version="1.0"?>\n<Clock xmlns:dt="urn:schemas-microsoft-com:datatypes"><Description dt:dt="string">E-Prime Primary Realtime Clock</Description><StartTime><Timestamp dt:dt="int">0</Timestamp><DateUtc dt:dt="string">2016-07-27T15:00:23Z</DateUtc></StartTime><FrequencyChanges><FrequencyChange><Frequency dt:dt="r8">2793160000</Frequency><Timestamp dt:dt="r8">7.229017280322E+15</Timestamp><Current dt:dt="r8">0</Current><DateUtc dt:dt="string">2016-07-27T15:00:23Z</DateUtc></FrequencyChange></FrequencyChanges></Clock>\n	TMA Blocker Split Nostril Olfactometer_Pilot 2-54-1	74.911	1.0.0.1473	1	0		-999999	12035	4091468	0	q	291150	4382618	-554130665	2.0.10.242	2.0.10.242	07-27-2016	7/27/2016 3:00:23 PM	11:00:23	2.0.10.147	18	FRUIT LOOPS	NULL	NULL	BlockProcB	NULL	Test2	NULL	NULL	NULL	NULL	NULL	NULL	NULL	NULL	NULL	1	1	1	No	NULL	NULL	NULL	NULL	NULL	NULL	15	NULL	NULL	NULL	NULL	Linalool	192	24	NULL	NULL	NULL	NULL	TrialProc2	NULL	NULL	NULL	NULL	NULL	NULL	NULL	NULL	NULL	NULL	NULL	NULL	NULL	NULL	NULL	NULL	Blank	TrialList2	NULL	NULL	NULL	NULL	NULL	NULL	NULL	NULL	NULL	3	2	15	2	NULL	NULL	1	15	15	NULL	Fruit Loop	562	578	NULL	NULL	NULL	NULL	NULL	NULL	NULL	NULL	NULL	1	NULL	NULL	NULL	ExperimentProc	How intense is the odor?	Experiment	NULL	NULL	NULL	NULL	NULL	NULL	NULL	NULL	?
TMA Blocker Split Nostril Olfactometer_Pilot 2	54	1	<?xml version="1.0"?>\n<Clock xmlns:dt="urn:schemas-microsoft-com:datatypes"><Description dt:dt="string">E-Prime Primary Realtime Clock</Description><StartTime><Timestamp dt:dt="int">0</Timestamp><DateUtc dt:dt="string">2016-07-27T15:00:23Z</DateUtc></StartTime><FrequencyChanges><FrequencyChange><Frequency dt:dt="r8">2793160000</Frequency><Timestamp dt:dt="r8">7.229017280322E+15</Timestamp><Current dt:dt="r8">0</Current><DateUtc dt:dt="string">2016-07-27T15:00:23Z</DateUtc></FrequencyChange></FrequencyChanges></Clock>\n	TMA Blocker Split Nostril Olfactometer_Pilot 2-54-1	74.911	1.0.0.1473	1	0		-999999	12035	4091468	0	q	291150	4382618	-554130665	2.0.10.242	2.0.10.242	07-27-2016	7/27/2016 3:00:23 PM	11:00:23	2.0.10.147	18	FRUIT LOOPS	NULL	NULL	BlockProcB	NULL	Test2	NULL	NULL	NULL	NULL	NULL	NULL	NULL	NULL	NULL	1	1	1	No	NULL	NULL	NULL	NULL	NULL	NULL	15	NULL	NULL	NULL	NULL	Linalool	192	24	NULL	NULL	NULL	NULL	TrialProc2	NULL	NULL	NULL	NULL	NULL	NULL	NULL	NULL	NULL	NULL	NULL	NULL	NULL	NULL	NULL	NULL	Blank	TrialList2	NULL	NULL	NULL	NULL	NULL	NULL	NULL	NULL	NULL	3	2	15	3	Blind Guardian	1	NULL	NULL	NULL	Male	NULL	NULL	NULL	1	1	-999999	13	2723853	0	1	34	2723887	NULL	NULL	NULL	NULL	SongTrial2	NULL	SoundList2	Another Stranger Me	S:\mainland\Projects\TMA blocker\E-Prime\song21.wav	NULL	NULL	NULL	1	1	15	NULL
TMA Blocker Split Nostril Olfactometer_Pilot 2	54	1	<?xml version="1.0"?>\n<Clock xmlns:dt="urn:schemas-microsoft-com:datatypes"><Description dt:dt="string">E-Prime Primary Realtime Clock</Description><StartTime><Timestamp dt:dt="int">0</Timestamp><DateUtc dt:dt="string">2016-07-27T15:00:23Z</DateUtc></StartTime><FrequencyChanges><FrequencyChange><Frequency dt:dt="r8">2793160000</Frequency><Timestamp dt:dt="r8">7.229017280322E+15</Timestamp><Current dt:dt="r8">0</Current><DateUtc dt:dt="string">2016-07-27T15:00:23Z</DateUtc></FrequencyChange></FrequencyChanges></Clock>\n	TMA Blocker Split Nostril Olfactometer_Pilot 2-54-1	74.911	1.0.0.1473	1	0		-999999	12035	4091468	0	q	291150	4382618	-554130665	2.0.10.242	2.0.10.242	07-27-2016	7/27/2016 3:00:23 PM	11:00:23	2.0.10.147	18	FRUIT LOOPS	NULL	NULL	BlockProcB	NULL	Test2	NULL	NULL	NULL	NULL	NULL	NULL	NULL	NULL	NULL	1	1	1	No	NULL	NULL	NULL	NULL	NULL	NULL	16	NULL	NULL	NULL	NULL	Blank	66	5	NULL	NULL	NULL	NULL	TrialProc2	NULL	NULL	NULL	NULL	NULL	NULL	NULL	NULL	NULL	NULL	NULL	NULL	NULL	NULL	NULL	NULL	TMA+Linalool	TrialList2	NULL	NULL	NULL	NULL	NULL	NULL	NULL	NULL	NULL	6	2	16	1	NULL	NULL	NULL	NULL	NULL	NULL	NULL	NULL	NULL	NULL	NULL	NULL	NULL	NULL	NULL	NULL	NULL	NULL	NULL	1	23	23	PrepareProc	NULL	Prepare	NULL	NULL	NULL	NULL	NULL	NULL	NULL	NULL	NULL
TMA Blocker Split Nostril Olfactometer_Pilot 2	54	1	<?xml version="1.0"?>\n<Clock xmlns:dt="urn:schemas-microsoft-com:datatypes"><Description dt:dt="string">E-Prime Primary Realtime Clock</Description><StartTime><Timestamp dt:dt="int">0</Timestamp><DateUtc dt:dt="string">2016-07-27T15:00:23Z</DateUtc></StartTime><FrequencyChanges><FrequencyChange><Frequency dt:dt="r8">2793160000</Frequency><Timestamp dt:dt="r8">7.229017280322E+15</Timestamp><Current dt:dt="r8">0</Current><DateUtc dt:dt="string">2016-07-27T15:00:23Z</DateUtc></FrequencyChange></FrequencyChanges></Clock>\n	TMA Blocker Split Nostril Olfactometer_Pilot 2-54-1	74.911	1.0.0.1473	1	0		-999999	12035	4091468	0	q	291150	4382618	-554130665	2.0.10.242	2.0.10.242	07-27-2016	7/27/2016 3:00:23 PM	11:00:23	2.0.10.147	18	FRUIT LOOPS	NULL	NULL	BlockProcB	NULL	Test2	NULL	NULL	NULL	NULL	NULL	NULL	NULL	NULL	NULL	1	1	1	No	NULL	NULL	NULL	NULL	NULL	NULL	16	NULL	NULL	NULL	NULL	Blank	66	5	NULL	NULL	NULL	NULL	TrialProc2	NULL	NULL	NULL	NULL	NULL	NULL	NULL	NULL	NULL	NULL	NULL	NULL	NULL	NULL	NULL	NULL	TMA+Linalool	TrialList2	NULL	NULL	NULL	NULL	NULL	NULL	NULL	NULL	NULL	6	2	16	2	NULL	NULL	1	16	16	NULL	Fruit Loop	578	423	NULL	NULL	NULL	NULL	NULL	NULL	NULL	NULL	NULL	1	NULL	NULL	NULL	ExperimentProc	How intense is the odor?	Experiment	NULL	NULL	NULL	NULL	NULL	NULL	NULL	NULL	?
TMA Blocker Split Nostril Olfactometer_Pilot 2	54	1	<?xml version="1.0"?>\n<Clock xmlns:dt="urn:schemas-microsoft-com:datatypes"><Description dt:dt="string">E-Prime Primary Realtime Clock</Description><StartTime><Timestamp dt:dt="int">0</Timestamp><DateUtc dt:dt="string">2016-07-27T15:00:23Z</DateUtc></StartTime><FrequencyChanges><FrequencyChange><Frequency dt:dt="r8">2793160000</Frequency><Timestamp dt:dt="r8">7.229017280322E+15</Timestamp><Current dt:dt="r8">0</Current><DateUtc dt:dt="string">2016-07-27T15:00:23Z</DateUtc></FrequencyChange></FrequencyChanges></Clock>\n	TMA Blocker Split Nostril Olfactometer_Pilot 2-54-1	74.911	1.0.0.1473	1	0		-999999	12035	4091468	0	q	291150	4382618	-554130665	2.0.10.242	2.0.10.242	07-27-2016	7/27/2016 3:00:23 PM	11:00:23	2.0.10.147	18	FRUIT LOOPS	NULL	NULL	BlockProcB	NULL	Test2	NULL	NULL	NULL	NULL	NULL	NULL	NULL	NULL	NULL	1	1	1	No	NULL	NULL	NULL	NULL	NULL	NULL	16	NULL	NULL	NULL	NULL	Blank	66	5	NULL	NULL	NULL	NULL	TrialProc2	NULL	NULL	NULL	NULL	NULL	NULL	NULL	NULL	NULL	NULL	NULL	NULL	NULL	NULL	NULL	NULL	TMA+Linalool	TrialList2	NULL	NULL	NULL	NULL	NULL	NULL	NULL	NULL	NULL	6	2	16	3	Arch Enemy	2	NULL	NULL	NULL	Female	NULL	NULL	NULL	0	2	-999999	13	2765262	0	1	512	2765774	NULL	NULL	NULL	NULL	SongTrial2	NULL	SoundList2	Nemesis	S:\mainland\Projects\TMA blocker\E-Prime\song23.wav	NULL	NULL	NULL	3	1	16	NULL
TMA Blocker Split Nostril Olfactometer_Pilot 2	54	1	<?xml version="1.0"?>\n<Clock xmlns:dt="urn:schemas-microsoft-com:datatypes"><Description dt:dt="string">E-Prime Primary Realtime Clock</Description><StartTime><Timestamp dt:dt="int">0</Timestamp><DateUtc dt:dt="string">2016-07-27T15:00:23Z</DateUtc></StartTime><FrequencyChanges><FrequencyChange><Frequency dt:dt="r8">2793160000</Frequency><Timestamp dt:dt="r8">7.229017280322E+15</Timestamp><Current dt:dt="r8">0</Current><DateUtc dt:dt="string">2016-07-27T15:00:23Z</DateUtc></FrequencyChange></FrequencyChanges></Clock>\n	TMA Blocker Split Nostril Olfactometer_Pilot 2-54-1	74.911	1.0.0.1473	1	0		-999999	12035	4091468	0	q	291150	4382618	-554130665	2.0.10.242	2.0.10.242	07-27-2016	7/27/2016 3:00:23 PM	11:00:23	2.0.10.147	18	FRUIT LOOPS	NULL	NULL	BlockProcB	NULL	Test2	NULL	NULL	NULL	NULL	NULL	NULL	NULL	NULL	NULL	1	1	1	No	NULL	NULL	NULL	NULL	NULL	NULL	17	NULL	NULL	NULL	NULL	Blank	66	9	NULL	NULL	NULL	NULL	TrialProc2	NULL	NULL	NULL	NULL	NULL	NULL	NULL	NULL	NULL	NULL	NULL	NULL	NULL	NULL	NULL	NULL	TMA	TrialList2	NULL	NULL	NULL	NULL	NULL	NULL	NULL	NULL	NULL	2	2	17	1	NULL	NULL	NULL	NULL	NULL	NULL	NULL	NULL	NULL	NULL	NULL	NULL	NULL	NULL	NULL	NULL	NULL	NULL	NULL	1	24	24	PrepareProc	NULL	Prepare	NULL	NULL	NULL	NULL	NULL	NULL	NULL	NULL	NULL
TMA Blocker Split Nostril Olfactometer_Pilot 2	54	1	<?xml version="1.0"?>\n<Clock xmlns:dt="urn:schemas-microsoft-com:datatypes"><Description dt:dt="string">E-Prime Primary Realtime Clock</Description><StartTime><Timestamp dt:dt="int">0</Timestamp><DateUtc dt:dt="string">2016-07-27T15:00:23Z</DateUtc></StartTime><FrequencyChanges><FrequencyChange><Frequency dt:dt="r8">2793160000</Frequency><Timestamp dt:dt="r8">7.229017280322E+15</Timestamp><Current dt:dt="r8">0</Current><DateUtc dt:dt="string">2016-07-27T15:00:23Z</DateUtc></FrequencyChange></FrequencyChanges></Clock>\n	TMA Blocker Split Nostril Olfactometer_Pilot 2-54-1	74.911	1.0.0.1473	1	0		-999999	12035	4091468	0	q	291150	4382618	-554130665	2.0.10.242	2.0.10.242	07-27-2016	7/27/2016 3:00:23 PM	11:00:23	2.0.10.147	18	FRUIT LOOPS	NULL	NULL	BlockProcB	NULL	Test2	NULL	NULL	NULL	NULL	NULL	NULL	NULL	NULL	NULL	1	1	1	No	NULL	NULL	NULL	NULL	NULL	NULL	17	NULL	NULL	NULL	NULL	Blank	66	9	NULL	NULL	NULL	NULL	TrialProc2	NULL	NULL	NULL	NULL	NULL	NULL	NULL	NULL	NULL	NULL	NULL	NULL	NULL	NULL	NULL	NULL	TMA	TrialList2	NULL	NULL	NULL	NULL	NULL	NULL	NULL	NULL	NULL	2	2	17	2	NULL	NULL	1	17	17	NULL	Fruit Loop	578	548	NULL	NULL	NULL	NULL	NULL	NULL	NULL	NULL	NULL	1	NULL	NULL	NULL	ExperimentProc	How intense is the odor?	Experiment	NULL	NULL	NULL	NULL	NULL	NULL	NULL	NULL	?
TMA Blocker Split Nostril Olfactometer_Pilot 2	54	1	<?xml version="1.0"?>\n<Clock xmlns:dt="urn:schemas-microsoft-com:datatypes"><Description dt:dt="string">E-Prime Primary Realtime Clock</Description><StartTime><Timestamp dt:dt="int">0</Timestamp><DateUtc dt:dt="string">2016-07-27T15:00:23Z</DateUtc></StartTime><FrequencyChanges><FrequencyChange><Frequency dt:dt="r8">2793160000</Frequency><Timestamp dt:dt="r8">7.229017280322E+15</Timestamp><Current dt:dt="r8">0</Current><DateUtc dt:dt="string">2016-07-27T15:00:23Z</DateUtc></FrequencyChange></FrequencyChanges></Clock>\n	TMA Blocker Split Nostril Olfactometer_Pilot 2-54-1	74.911	1.0.0.1473	1	0		-999999	12035	4091468	0	q	291150	4382618	-554130665	2.0.10.242	2.0.10.242	07-27-2016	7/27/2016 3:00:23 PM	11:00:23	2.0.10.147	18	FRUIT LOOPS	NULL	NULL	BlockProcB	NULL	Test2	NULL	NULL	NULL	NULL	NULL	NULL	NULL	NULL	NULL	1	1	1	No	NULL	NULL	NULL	NULL	NULL	NULL	17	NULL	NULL	NULL	NULL	Blank	66	9	NULL	NULL	NULL	NULL	TrialProc2	NULL	NULL	NULL	NULL	NULL	NULL	NULL	NULL	NULL	NULL	NULL	NULL	NULL	NULL	NULL	NULL	TMA	TrialList2	NULL	NULL	NULL	NULL	NULL	NULL	NULL	NULL	NULL	2	2	17	3	Fiona Apple	2	NULL	NULL	NULL	Female	NULL	NULL	NULL	1	2	-999999	13	2808033	0	2	332	2808365	NULL	NULL	NULL	NULL	SongTrial2	NULL	SoundList2	Not About Love	S:\mainland\Projects\TMA blocker\E-Prime\song26.wav	NULL	NULL	NULL	6	1	17	NULL
