ExperimentName	Subject	Session	Clock.Information	DataFile.Basename	Display.RefreshRate	ExperimentVersion	Group	Menu1.ACC	Menu1.CRESP	Menu1.DurationError	Menu1.OnsetDelay	Menu1.OnsetTime	Menu1.OnsetToOnsetTime	Menu1.RESP	Menu1.RT	Menu1.RTTime	RandomSeed	RuntimeVersion	RuntimeVersionExpected	SessionDate	SessionStartDateTimeUtc	SessionTime	StudioVersion	Block	Antag	Green[Block]	IntensityRatingTraining[Block]	Procedure[Block]	Question[Block]	Running[Block]	ScaleTraining	ScaleTraining.Cycle	ScaleTraining.Sample	SniffingInstructionsList	SniffingInstructionsList.Cycle	SniffingInstructionsList.Sample	Test1	Test1.Cycle	Test1.Sample	Test2	Test2.Cycle	Test2.Sample	TestMode	Train1	Train1.Cycle	Train1.Sample	Train2	Train2.Cycle	Train2.Sample	Trial	CorrectAnswer[Trial]	Descriptor	Green[Trial]	IntensityRatingTraining[Trial]	LeftType	OdorLeft	OdorRight	OdorType	Prepare[Trial]	Prepare.Cycle[Trial]	Prepare.Sample[Trial]	Procedure[Trial]	Question[Trial]	QuizList	QuizList.Cycle	QuizList.Sample	QuizList2	QuizList2.Cycle	QuizList2.Sample	QuizPage.ACC	QuizPage.CRESP	QuizPage.DurationError	QuizPage.OnsetDelay	QuizPage.OnsetTime	QuizPage.OnsetToOnsetTime	QuizPage.RESP	QuizPage.RT	QuizPage.RTTime	RightType	Running[Trial]	TrainList	TrainList.Cycle	TrainList.Sample	TrainList2	TrainList2.Cycle	TrainList2.Sample	TrialList	TrialList.Cycle	TrialList.Sample	TrialList2	TrialList2.Cycle	TrialList2.Sample	SubTrial	Band	CorrectAnswer[SubTrial]	Experiment	Experiment.Cycle	Experiment.Sample	Gender	Green[SubTrial]	IntensityRatingAntag	IntensityRatingFishy	MorF.ACC	MorF.CRESP	MorF.DurationError	MorF.OnsetDelay	MorF.OnsetTime	MorF.OnsetToOnsetTime	MorF.RESP	MorF.RT	MorF.RTTime	OdorAndConcentration	Prepare[SubTrial]	Prepare.Cycle[SubTrial]	Prepare.Sample[SubTrial]	Procedure[SubTrial]	Question[SubTrial]	Running[SubTrial]	SongName	SongTitle	SoundList	SoundList.Cycle	SoundList.Sample	SoundList2	SoundList2.Cycle	SoundList2.Sample	TrialNo
TMA Blocker Split Nostril Olfactometer_Pilot 2	59	1	<?xml version="1.0"?>\n<Clock xmlns:dt="urn:schemas-microsoft-com:datatypes"><Description dt:dt="string">E-Prime Primary Realtime Clock</Description><StartTime><Timestamp dt:dt="int">0</Timestamp><DateUtc dt:dt="string">2016-08-02T14:54:07Z</DateUtc></StartTime><FrequencyChanges><FrequencyChange><Frequency dt:dt="r8">2793160000</Frequency><Timestamp dt:dt="r8">8.67591638185306E+15</Timestamp><Current dt:dt="r8">0</Current><DateUtc dt:dt="string">2016-08-02T14:54:07Z</DateUtc></FrequencyChange></FrequencyChanges></Clock>\n	TMA Blocker Split Nostril Olfactometer_Pilot 2-59-1	74.912	1.0.0.1473	1	0		-999999	12035	4767597	0	q	603510	5371107	1407065467	2.0.10.242	2.0.10.242	08-02-2016	8/2/2016 2:54:07 PM	10:54:07	2.0.10.147	1	NULL		406	ScaleTrainingProc	The sweetness of cotton candy	ScaleTraining	12	2	1	NULL	NULL	NULL	NULL	NULL	NULL	NULL	NULL	NULL	NULL	NULL	NULL	NULL	NULL	NULL	NULL	NULL	NULL	NULL	NULL	NULL	NULL	NULL	NULL	NULL	NULL	NULL	NULL	NULL	NULL	NULL	NULL	NULL	NULL	NULL	NULL	NULL	NULL	NULL	NULL	NULL	NULL	NULL	NULL	NULL	NULL	NULL	NULL	NULL	NULL	NULL	NULL	NULL	NULL	NULL	NULL	NULL	NULL	NULL	NULL	NULL	NULL	NULL	NULL	NULL	NULL	NULL	NULL	NULL	NULL	NULL	NULL	NULL	NULL	NULL	NULL	NULL	NULL	NULL	NULL	NULL	NULL	NULL	NULL	NULL	NULL	NULL	NULL	NULL	NULL	NULL	NULL	NULL	NULL
TMA Blocker Split Nostril Olfactometer_Pilot 2	59	1	<?xml version="1.0"?>\n<Clock xmlns:dt="urn:schemas-microsoft-com:datatypes"><Description dt:dt="string">E-Prime Primary Realtime Clock</Description><StartTime><Timestamp dt:dt="int">0</Timestamp><DateUtc dt:dt="string">2016-08-02T14:54:07Z</DateUtc></StartTime><FrequencyChanges><FrequencyChange><Frequency dt:dt="r8">2793160000</Frequency><Timestamp dt:dt="r8">8.67591638185306E+15</Timestamp><Current dt:dt="r8">0</Current><DateUtc dt:dt="string">2016-08-02T14:54:07Z</DateUtc></FrequencyChange></FrequencyChanges></Clock>\n	TMA Blocker Split Nostril Olfactometer_Pilot 2-59-1	74.912	1.0.0.1473	1	0		-999999	12035	4767597	0	q	603510	5371107	1407065467	2.0.10.242	2.0.10.242	08-02-2016	8/2/2016 2:54:07 PM	10:54:07	2.0.10.147	2	NULL		403	ScaleTrainingProc	The warmth of a summer breeze on your face	ScaleTraining	10	2	2	NULL	NULL	NULL	NULL	NULL	NULL	NULL	NULL	NULL	NULL	NULL	NULL	NULL	NULL	NULL	NULL	NULL	NULL	NULL	NULL	NULL	NULL	NULL	NULL	NULL	NULL	NULL	NULL	NULL	NULL	NULL	NULL	NULL	NULL	NULL	NULL	NULL	NULL	NULL	NULL	NULL	NULL	NULL	NULL	NULL	NULL	NULL	NULL	NULL	NULL	NULL	NULL	NULL	NULL	NULL	NULL	NULL	NULL	NULL	NULL	NULL	NULL	NULL	NULL	NULL	NULL	NULL	NULL	NULL	NULL	NULL	NULL	NULL	NULL	NULL	NULL	NULL	NULL	NULL	NULL	NULL	NULL	NULL	NULL	NULL	NULL	NULL	NULL	NULL	NULL	NULL	NULL	NULL	NULL
TMA Blocker Split Nostril Olfactometer_Pilot 2	59	1	<?xml version="1.0"?>\n<Clock xmlns:dt="urn:schemas-microsoft-com:datatypes"><Description dt:dt="string">E-Prime Primary Realtime Clock</Description><StartTime><Timestamp dt:dt="int">0</Timestamp><DateUtc dt:dt="string">2016-08-02T14:54:07Z</DateUtc></StartTime><FrequencyChanges><FrequencyChange><Frequency dt:dt="r8">2793160000</Frequency><Timestamp dt:dt="r8">8.67591638185306E+15</Timestamp><Current dt:dt="r8">0</Current><DateUtc dt:dt="string">2016-08-02T14:54:07Z</DateUtc></FrequencyChange></FrequencyChanges></Clock>\n	TMA Blocker Split Nostril Olfactometer_Pilot 2-59-1	74.912	1.0.0.1473	1	0		-999999	12035	4767597	0	q	603510	5371107	1407065467	2.0.10.242	2.0.10.242	08-02-2016	8/2/2016 2:54:07 PM	10:54:07	2.0.10.147	3	NULL		84	ScaleTrainingProc	The strongest odor you have ever smelled	ScaleTraining	14	2	3	NULL	NULL	NULL	NULL	NULL	NULL	NULL	NULL	NULL	NULL	NULL	NULL	NULL	NULL	NULL	NULL	NULL	NULL	NULL	NULL	NULL	NULL	NULL	NULL	NULL	NULL	NULL	NULL	NULL	NULL	NULL	NULL	NULL	NULL	NULL	NULL	NULL	NULL	NULL	NULL	NULL	NULL	NULL	NULL	NULL	NULL	NULL	NULL	NULL	NULL	NULL	NULL	NULL	NULL	NULL	NULL	NULL	NULL	NULL	NULL	NULL	NULL	NULL	NULL	NULL	NULL	NULL	NULL	NULL	NULL	NULL	NULL	NULL	NULL	NULL	NULL	NULL	NULL	NULL	NULL	NULL	NULL	NULL	NULL	NULL	NULL	NULL	NULL	NULL	NULL	NULL	NULL	NULL	NULL
TMA Blocker Split Nostril Olfactometer_Pilot 2	59	1	<?xml version="1.0"?>\n<Clock xmlns:dt="urn:schemas-microsoft-com:datatypes"><Description dt:dt="string">E-Prime Primary Realtime Clock</Description><StartTime><Timestamp dt:dt="int">0</Timestamp><DateUtc dt:dt="string">2016-08-02T14:54:07Z</DateUtc></StartTime><FrequencyChanges><FrequencyChange><Frequency dt:dt="r8">2793160000</Frequency><Timestamp dt:dt="r8">8.67591638185306E+15</Timestamp><Current dt:dt="r8">0</Current><DateUtc dt:dt="string">2016-08-02T14:54:07Z</DateUtc></FrequencyChange></FrequencyChanges></Clock>\n	TMA Blocker Split Nostril Olfactometer_Pilot 2-59-1	74.912	1.0.0.1473	1	0		-999999	12035	4767597	0	q	603510	5371107	1407065467	2.0.10.242	2.0.10.242	08-02-2016	8/2/2016 2:54:07 PM	10:54:07	2.0.10.147	4	NULL		365	ScaleTrainingProc	The coolness from a peppermint candy	ScaleTraining	9	2	4	NULL	NULL	NULL	NULL	NULL	NULL	NULL	NULL	NULL	NULL	NULL	NULL	NULL	NULL	NULL	NULL	NULL	NULL	NULL	NULL	NULL	NULL	NULL	NULL	NULL	NULL	NULL	NULL	NULL	NULL	NULL	NULL	NULL	NULL	NULL	NULL	NULL	NULL	NULL	NULL	NULL	NULL	NULL	NULL	NULL	NULL	NULL	NULL	NULL	NULL	NULL	NULL	NULL	NULL	NULL	NULL	NULL	NULL	NULL	NULL	NULL	NULL	NULL	NULL	NULL	NULL	NULL	NULL	NULL	NULL	NULL	NULL	NULL	NULL	NULL	NULL	NULL	NULL	NULL	NULL	NULL	NULL	NULL	NULL	NULL	NULL	NULL	NULL	NULL	NULL	NULL	NULL	NULL	NULL
TMA Blocker Split Nostril Olfactometer_Pilot 2	59	1	<?xml version="1.0"?>\n<Clock xmlns:dt="urn:schemas-microsoft-com:datatypes"><Description dt:dt="string">E-Prime Primary Realtime Clock</Description><StartTime><Timestamp dt:dt="int">0</Timestamp><DateUtc dt:dt="string">2016-08-02T14:54:07Z</DateUtc></StartTime><FrequencyChanges><FrequencyChange><Frequency dt:dt="r8">2793160000</Frequency><Timestamp dt:dt="r8">8.67591638185306E+15</Timestamp><Current dt:dt="r8">0</Current><DateUtc dt:dt="string">2016-08-02T14:54:07Z</DateUtc></FrequencyChange></FrequencyChanges></Clock>\n	TMA Blocker Split Nostril Olfactometer_Pilot 2-59-1	74.912	1.0.0.1473	1	0		-999999	12035	4767597	0	q	603510	5371107	1407065467	2.0.10.242	2.0.10.242	08-02-2016	8/2/2016 2:54:07 PM	10:54:07	2.0.10.147	5	NULL		499	ScaleTrainingProc	The brightness of a dimly-lit room	ScaleTraining	11	2	5	NULL	NULL	NULL	NULL	NULL	NULL	NULL	NULL	NULL	NULL	NULL	NULL	NULL	NULL	NULL	NULL	NULL	NULL	NULL	NULL	NULL	NULL	NULL	NULL	NULL	NULL	NULL	NULL	NULL	NULL	NULL	NULL	NULL	NULL	NULL	NULL	NULL	NULL	NULL	NULL	NULL	NULL	NULL	NULL	NULL	NULL	NULL	NULL	NULL	NULL	NULL	NULL	NULL	NULL	NULL	NULL	NULL	NULL	NULL	NULL	NULL	NULL	NULL	NULL	NULL	NULL	NULL	NULL	NULL	NULL	NULL	NULL	NULL	NULL	NULL	NULL	NULL	NULL	NULL	NULL	NULL	NULL	NULL	NULL	NULL	NULL	NULL	NULL	NULL	NULL	NULL	NULL	NULL	NULL
TMA Blocker Split Nostril Olfactometer_Pilot 2	59	1	<?xml version="1.0"?>\n<Clock xmlns:dt="urn:schemas-microsoft-com:datatypes"><Description dt:dt="string">E-Prime Primary Realtime Clock</Description><StartTime><Timestamp dt:dt="int">0</Timestamp><DateUtc dt:dt="string">2016-08-02T14:54:07Z</DateUtc></StartTime><FrequencyChanges><FrequencyChange><Frequency dt:dt="r8">2793160000</Frequency><Timestamp dt:dt="r8">8.67591638185306E+15</Timestamp><Current dt:dt="r8">0</Current><DateUtc dt:dt="string">2016-08-02T14:54:07Z</DateUtc></FrequencyChange></FrequencyChanges></Clock>\n	TMA Blocker Split Nostril Olfactometer_Pilot 2-59-1	74.912	1.0.0.1473	1	0		-999999	12035	4767597	0	q	603510	5371107	1407065467	2.0.10.242	2.0.10.242	08-02-2016	8/2/2016 2:54:07 PM	10:54:07	2.0.10.147	6	NULL		464	ScaleTrainingProc	The strength of the odor (intensity) of a rose	ScaleTraining	13	2	6	NULL	NULL	NULL	NULL	NULL	NULL	NULL	NULL	NULL	NULL	NULL	NULL	NULL	NULL	NULL	NULL	NULL	NULL	NULL	NULL	NULL	NULL	NULL	NULL	NULL	NULL	NULL	NULL	NULL	NULL	NULL	NULL	NULL	NULL	NULL	NULL	NULL	NULL	NULL	NULL	NULL	NULL	NULL	NULL	NULL	NULL	NULL	NULL	NULL	NULL	NULL	NULL	NULL	NULL	NULL	NULL	NULL	NULL	NULL	NULL	NULL	NULL	NULL	NULL	NULL	NULL	NULL	NULL	NULL	NULL	NULL	NULL	NULL	NULL	NULL	NULL	NULL	NULL	NULL	NULL	NULL	NULL	NULL	NULL	NULL	NULL	NULL	NULL	NULL	NULL	NULL	NULL	NULL	NULL
TMA Blocker Split Nostril Olfactometer_Pilot 2	59	1	<?xml version="1.0"?>\n<Clock xmlns:dt="urn:schemas-microsoft-com:datatypes"><Description dt:dt="string">E-Prime Primary Realtime Clock</Description><StartTime><Timestamp dt:dt="int">0</Timestamp><DateUtc dt:dt="string">2016-08-02T14:54:07Z</DateUtc></StartTime><FrequencyChanges><FrequencyChange><Frequency dt:dt="r8">2793160000</Frequency><Timestamp dt:dt="r8">8.67591638185306E+15</Timestamp><Current dt:dt="r8">0</Current><DateUtc dt:dt="string">2016-08-02T14:54:07Z</DateUtc></FrequencyChange></FrequencyChanges></Clock>\n	TMA Blocker Split Nostril Olfactometer_Pilot 2-59-1	74.912	1.0.0.1473	1	0		-999999	12035	4767597	0	q	603510	5371107	1407065467	2.0.10.242	2.0.10.242	08-02-2016	8/2/2016 2:54:07 PM	10:54:07	2.0.10.147	7	NULL		308	ScaleTrainingProc	The strength of a firm handshake	ScaleTraining	6	2	7	NULL	NULL	NULL	NULL	NULL	NULL	NULL	NULL	NULL	NULL	NULL	NULL	NULL	NULL	NULL	NULL	NULL	NULL	NULL	NULL	NULL	NULL	NULL	NULL	NULL	NULL	NULL	NULL	NULL	NULL	NULL	NULL	NULL	NULL	NULL	NULL	NULL	NULL	NULL	NULL	NULL	NULL	NULL	NULL	NULL	NULL	NULL	NULL	NULL	NULL	NULL	NULL	NULL	NULL	NULL	NULL	NULL	NULL	NULL	NULL	NULL	NULL	NULL	NULL	NULL	NULL	NULL	NULL	NULL	NULL	NULL	NULL	NULL	NULL	NULL	NULL	NULL	NULL	NULL	NULL	NULL	NULL	NULL	NULL	NULL	NULL	NULL	NULL	NULL	NULL	NULL	NULL	NULL	NULL
TMA Blocker Split Nostril Olfactometer_Pilot 2	59	1	<?xml version="1.0"?>\n<Clock xmlns:dt="urn:schemas-microsoft-com:datatypes"><Description dt:dt="string">E-Prime Primary Realtime Clock</Description><StartTime><Timestamp dt:dt="int">0</Timestamp><DateUtc dt:dt="string">2016-08-02T14:54:07Z</DateUtc></StartTime><FrequencyChanges><FrequencyChange><Frequency dt:dt="r8">2793160000</Frequency><Timestamp dt:dt="r8">8.67591638185306E+15</Timestamp><Current dt:dt="r8">0</Current><DateUtc dt:dt="string">2016-08-02T14:54:07Z</DateUtc></FrequencyChange></FrequencyChanges></Clock>\n	TMA Blocker Split Nostril Olfactometer_Pilot 2-59-1	74.912	1.0.0.1473	1	0		-999999	12035	4767597	0	q	603510	5371107	1407065467	2.0.10.242	2.0.10.242	08-02-2016	8/2/2016 2:54:07 PM	10:54:07	2.0.10.147	8	NULL		501	ScaleTrainingProc	The pain from biting your tongue	ScaleTraining	4	2	8	NULL	NULL	NULL	NULL	NULL	NULL	NULL	NULL	NULL	NULL	NULL	NULL	NULL	NULL	NULL	NULL	NULL	NULL	NULL	NULL	NULL	NULL	NULL	NULL	NULL	NULL	NULL	NULL	NULL	NULL	NULL	NULL	NULL	NULL	NULL	NULL	NULL	NULL	NULL	NULL	NULL	NULL	NULL	NULL	NULL	NULL	NULL	NULL	NULL	NULL	NULL	NULL	NULL	NULL	NULL	NULL	NULL	NULL	NULL	NULL	NULL	NULL	NULL	NULL	NULL	NULL	NULL	NULL	NULL	NULL	NULL	NULL	NULL	NULL	NULL	NULL	NULL	NULL	NULL	NULL	NULL	NULL	NULL	NULL	NULL	NULL	NULL	NULL	NULL	NULL	NULL	NULL	NULL	NULL
TMA Blocker Split Nostril Olfactometer_Pilot 2	59	1	<?xml version="1.0"?>\n<Clock xmlns:dt="urn:schemas-microsoft-com:datatypes"><Description dt:dt="string">E-Prime Primary Realtime Clock</Description><StartTime><Timestamp dt:dt="int">0</Timestamp><DateUtc dt:dt="string">2016-08-02T14:54:07Z</DateUtc></StartTime><FrequencyChanges><FrequencyChange><Frequency dt:dt="r8">2793160000</Frequency><Timestamp dt:dt="r8">8.67591638185306E+15</Timestamp><Current dt:dt="r8">0</Current><DateUtc dt:dt="string">2016-08-02T14:54:07Z</DateUtc></FrequencyChange></FrequencyChanges></Clock>\n	TMA Blocker Split Nostril Olfactometer_Pilot 2-59-1	74.912	1.0.0.1473	1	0		-999999	12035	4767597	0	q	603510	5371107	1407065467	2.0.10.242	2.0.10.242	08-02-2016	8/2/2016 2:54:07 PM	10:54:07	2.0.10.147	9	NULL		86	ScaleTrainingProc	The loudest sound you have ever heard	ScaleTraining	2	2	9	NULL	NULL	NULL	NULL	NULL	NULL	NULL	NULL	NULL	NULL	NULL	NULL	NULL	NULL	NULL	NULL	NULL	NULL	NULL	NULL	NULL	NULL	NULL	NULL	NULL	NULL	NULL	NULL	NULL	NULL	NULL	NULL	NULL	NULL	NULL	NULL	NULL	NULL	NULL	NULL	NULL	NULL	NULL	NULL	NULL	NULL	NULL	NULL	NULL	NULL	NULL	NULL	NULL	NULL	NULL	NULL	NULL	NULL	NULL	NULL	NULL	NULL	NULL	NULL	NULL	NULL	NULL	NULL	NULL	NULL	NULL	NULL	NULL	NULL	NULL	NULL	NULL	NULL	NULL	NULL	NULL	NULL	NULL	NULL	NULL	NULL	NULL	NULL	NULL	NULL	NULL	NULL	NULL	NULL
TMA Blocker Split Nostril Olfactometer_Pilot 2	59	1	<?xml version="1.0"?>\n<Clock xmlns:dt="urn:schemas-microsoft-com:datatypes"><Description dt:dt="string">E-Prime Primary Realtime Clock</Description><StartTime><Timestamp dt:dt="int">0</Timestamp><DateUtc dt:dt="string">2016-08-02T14:54:07Z</DateUtc></StartTime><FrequencyChanges><FrequencyChange><Frequency dt:dt="r8">2793160000</Frequency><Timestamp dt:dt="r8">8.67591638185306E+15</Timestamp><Current dt:dt="r8">0</Current><DateUtc dt:dt="string">2016-08-02T14:54:07Z</DateUtc></FrequencyChange></FrequencyChanges></Clock>\n	TMA Blocker Split Nostril Olfactometer_Pilot 2-59-1	74.912	1.0.0.1473	1	0		-999999	12035	4767597	0	q	603510	5371107	1407065467	2.0.10.242	2.0.10.242	08-02-2016	8/2/2016 2:54:07 PM	10:54:07	2.0.10.147	10	NULL		329	scaleTrainingProc	The sourness of a lemon	ScaleTraining	15	2	10	NULL	NULL	NULL	NULL	NULL	NULL	NULL	NULL	NULL	NULL	NULL	NULL	NULL	NULL	NULL	NULL	NULL	NULL	NULL	NULL	NULL	NULL	NULL	NULL	NULL	NULL	NULL	NULL	NULL	NULL	NULL	NULL	NULL	NULL	NULL	NULL	NULL	NULL	NULL	NULL	NULL	NULL	NULL	NULL	NULL	NULL	NULL	NULL	NULL	NULL	NULL	NULL	NULL	NULL	NULL	NULL	NULL	NULL	NULL	NULL	NULL	NULL	NULL	NULL	NULL	NULL	NULL	NULL	NULL	NULL	NULL	NULL	NULL	NULL	NULL	NULL	NULL	NULL	NULL	NULL	NULL	NULL	NULL	NULL	NULL	NULL	NULL	NULL	NULL	NULL	NULL	NULL	NULL	NULL
TMA Blocker Split Nostril Olfactometer_Pilot 2	59	1	<?xml version="1.0"?>\n<Clock xmlns:dt="urn:schemas-microsoft-com:datatypes"><Description dt:dt="string">E-Prime Primary Realtime Clock</Description><StartTime><Timestamp dt:dt="int">0</Timestamp><DateUtc dt:dt="string">2016-08-02T14:54:07Z</DateUtc></StartTime><FrequencyChanges><FrequencyChange><Frequency dt:dt="r8">2793160000</Frequency><Timestamp dt:dt="r8">8.67591638185306E+15</Timestamp><Current dt:dt="r8">0</Current><DateUtc dt:dt="string">2016-08-02T14:54:07Z</DateUtc></FrequencyChange></FrequencyChanges></Clock>\n	TMA Blocker Split Nostril Olfactometer_Pilot 2-59-1	74.912	1.0.0.1473	1	0		-999999	12035	4767597	0	q	603510	5371107	1407065467	2.0.10.242	2.0.10.242	08-02-2016	8/2/2016 2:54:07 PM	10:54:07	2.0.10.147	11	NULL		407	ScaleTrainingProc	The brigtness of a well-lit room	ScaleTraining	5	2	11	NULL	NULL	NULL	NULL	NULL	NULL	NULL	NULL	NULL	NULL	NULL	NULL	NULL	NULL	NULL	NULL	NULL	NULL	NULL	NULL	NULL	NULL	NULL	NULL	NULL	NULL	NULL	NULL	NULL	NULL	NULL	NULL	NULL	NULL	NULL	NULL	NULL	NULL	NULL	NULL	NULL	NULL	NULL	NULL	NULL	NULL	NULL	NULL	NULL	NULL	NULL	NULL	NULL	NULL	NULL	NULL	NULL	NULL	NULL	NULL	NULL	NULL	NULL	NULL	NULL	NULL	NULL	NULL	NULL	NULL	NULL	NULL	NULL	NULL	NULL	NULL	NULL	NULL	NULL	NULL	NULL	NULL	NULL	NULL	NULL	NULL	NULL	NULL	NULL	NULL	NULL	NULL	NULL	NULL
TMA Blocker Split Nostril Olfactometer_Pilot 2	59	1	<?xml version="1.0"?>\n<Clock xmlns:dt="urn:schemas-microsoft-com:datatypes"><Description dt:dt="string">E-Prime Primary Realtime Clock</Description><StartTime><Timestamp dt:dt="int">0</Timestamp><DateUtc dt:dt="string">2016-08-02T14:54:07Z</DateUtc></StartTime><FrequencyChanges><FrequencyChange><Frequency dt:dt="r8">2793160000</Frequency><Timestamp dt:dt="r8">8.67591638185306E+15</Timestamp><Current dt:dt="r8">0</Current><DateUtc dt:dt="string">2016-08-02T14:54:07Z</DateUtc></FrequencyChange></FrequencyChanges></Clock>\n	TMA Blocker Split Nostril Olfactometer_Pilot 2-59-1	74.912	1.0.0.1473	1	0		-999999	12035	4767597	0	q	603510	5371107	1407065467	2.0.10.242	2.0.10.242	08-02-2016	8/2/2016 2:54:07 PM	10:54:07	2.0.10.147	12	NULL		82	ScaleTrainingProc	The brightest light you have ever seen	ScaleTraining	1	2	12	NULL	NULL	NULL	NULL	NULL	NULL	NULL	NULL	NULL	NULL	NULL	NULL	NULL	NULL	NULL	NULL	NULL	NULL	NULL	NULL	NULL	NULL	NULL	NULL	NULL	NULL	NULL	NULL	NULL	NULL	NULL	NULL	NULL	NULL	NULL	NULL	NULL	NULL	NULL	NULL	NULL	NULL	NULL	NULL	NULL	NULL	NULL	NULL	NULL	NULL	NULL	NULL	NULL	NULL	NULL	NULL	NULL	NULL	NULL	NULL	NULL	NULL	NULL	NULL	NULL	NULL	NULL	NULL	NULL	NULL	NULL	NULL	NULL	NULL	NULL	NULL	NULL	NULL	NULL	NULL	NULL	NULL	NULL	NULL	NULL	NULL	NULL	NULL	NULL	NULL	NULL	NULL	NULL	NULL
TMA Blocker Split Nostril Olfactometer_Pilot 2	59	1	<?xml version="1.0"?>\n<Clock xmlns:dt="urn:schemas-microsoft-com:datatypes"><Description dt:dt="string">E-Prime Primary Realtime Clock</Description><StartTime><Timestamp dt:dt="int">0</Timestamp><DateUtc dt:dt="string">2016-08-02T14:54:07Z</DateUtc></StartTime><FrequencyChanges><FrequencyChange><Frequency dt:dt="r8">2793160000</Frequency><Timestamp dt:dt="r8">8.67591638185306E+15</Timestamp><Current dt:dt="r8">0</Current><DateUtc dt:dt="string">2016-08-02T14:54:07Z</DateUtc></FrequencyChange></FrequencyChanges></Clock>\n	TMA Blocker Split Nostril Olfactometer_Pilot 2-59-1	74.912	1.0.0.1473	1	0		-999999	12035	4767597	0	q	603510	5371107	1407065467	2.0.10.242	2.0.10.242	08-02-2016	8/2/2016 2:54:07 PM	10:54:07	2.0.10.147	13	NULL		495	ScaleTrainingProc	The loudness of a conversation	ScaleTraining	7	2	13	NULL	NULL	NULL	NULL	NULL	NULL	NULL	NULL	NULL	NULL	NULL	NULL	NULL	NULL	NULL	NULL	NULL	NULL	NULL	NULL	NULL	NULL	NULL	NULL	NULL	NULL	NULL	NULL	NULL	NULL	NULL	NULL	NULL	NULL	NULL	NULL	NULL	NULL	NULL	NULL	NULL	NULL	NULL	NULL	NULL	NULL	NULL	NULL	NULL	NULL	NULL	NULL	NULL	NULL	NULL	NULL	NULL	NULL	NULL	NULL	NULL	NULL	NULL	NULL	NULL	NULL	NULL	NULL	NULL	NULL	NULL	NULL	NULL	NULL	NULL	NULL	NULL	NULL	NULL	NULL	NULL	NULL	NULL	NULL	NULL	NULL	NULL	NULL	NULL	NULL	NULL	NULL	NULL	NULL
TMA Blocker Split Nostril Olfactometer_Pilot 2	59	1	<?xml version="1.0"?>\n<Clock xmlns:dt="urn:schemas-microsoft-com:datatypes"><Description dt:dt="string">E-Prime Primary Realtime Clock</Description><StartTime><Timestamp dt:dt="int">0</Timestamp><DateUtc dt:dt="string">2016-08-02T14:54:07Z</DateUtc></StartTime><FrequencyChanges><FrequencyChange><Frequency dt:dt="r8">2793160000</Frequency><Timestamp dt:dt="r8">8.67591638185306E+15</Timestamp><Current dt:dt="r8">0</Current><DateUtc dt:dt="string">2016-08-02T14:54:07Z</DateUtc></FrequencyChange></FrequencyChanges></Clock>\n	TMA Blocker Split Nostril Olfactometer_Pilot 2-59-1	74.912	1.0.0.1473	1	0		-999999	12035	4767597	0	q	603510	5371107	1407065467	2.0.10.242	2.0.10.242	08-02-2016	8/2/2016 2:54:07 PM	10:54:07	2.0.10.147	14	NULL		195	ScaleTrainingProc	The heat from dipping your hand in scalding hot water	ScaleTraining	3	2	14	NULL	NULL	NULL	NULL	NULL	NULL	NULL	NULL	NULL	NULL	NULL	NULL	NULL	NULL	NULL	NULL	NULL	NULL	NULL	NULL	NULL	NULL	NULL	NULL	NULL	NULL	NULL	NULL	NULL	NULL	NULL	NULL	NULL	NULL	NULL	NULL	NULL	NULL	NULL	NULL	NULL	NULL	NULL	NULL	NULL	NULL	NULL	NULL	NULL	NULL	NULL	NULL	NULL	NULL	NULL	NULL	NULL	NULL	NULL	NULL	NULL	NULL	NULL	NULL	NULL	NULL	NULL	NULL	NULL	NULL	NULL	NULL	NULL	NULL	NULL	NULL	NULL	NULL	NULL	NULL	NULL	NULL	NULL	NULL	NULL	NULL	NULL	NULL	NULL	NULL	NULL	NULL	NULL	NULL
TMA Blocker Split Nostril Olfactometer_Pilot 2	59	1	<?xml version="1.0"?>\n<Clock xmlns:dt="urn:schemas-microsoft-com:datatypes"><Description dt:dt="string">E-Prime Primary Realtime Clock</Description><StartTime><Timestamp dt:dt="int">0</Timestamp><DateUtc dt:dt="string">2016-08-02T14:54:07Z</DateUtc></StartTime><FrequencyChanges><FrequencyChange><Frequency dt:dt="r8">2793160000</Frequency><Timestamp dt:dt="r8">8.67591638185306E+15</Timestamp><Current dt:dt="r8">0</Current><DateUtc dt:dt="string">2016-08-02T14:54:07Z</DateUtc></FrequencyChange></FrequencyChanges></Clock>\n	TMA Blocker Split Nostril Olfactometer_Pilot 2-59-1	74.912	1.0.0.1473	1	0		-999999	12035	4767597	0	q	603510	5371107	1407065467	2.0.10.242	2.0.10.242	08-02-2016	8/2/2016 2:54:07 PM	10:54:07	2.0.10.147	15	NULL		93	ScaleTrainingProc	The loudness of a whisper	ScaleTraining	8	2	15	NULL	NULL	NULL	NULL	NULL	NULL	NULL	NULL	NULL	NULL	NULL	NULL	NULL	NULL	NULL	NULL	NULL	NULL	NULL	NULL	NULL	NULL	NULL	NULL	NULL	NULL	NULL	NULL	NULL	NULL	NULL	NULL	NULL	NULL	NULL	NULL	NULL	NULL	NULL	NULL	NULL	NULL	NULL	NULL	NULL	NULL	NULL	NULL	NULL	NULL	NULL	NULL	NULL	NULL	NULL	NULL	NULL	NULL	NULL	NULL	NULL	NULL	NULL	NULL	NULL	NULL	NULL	NULL	NULL	NULL	NULL	NULL	NULL	NULL	NULL	NULL	NULL	NULL	NULL	NULL	NULL	NULL	NULL	NULL	NULL	NULL	NULL	NULL	NULL	NULL	NULL	NULL	NULL	NULL
TMA Blocker Split Nostril Olfactometer_Pilot 2	59	1	<?xml version="1.0"?>\n<Clock xmlns:dt="urn:schemas-microsoft-com:datatypes"><Description dt:dt="string">E-Prime Primary Realtime Clock</Description><StartTime><Timestamp dt:dt="int">0</Timestamp><DateUtc dt:dt="string">2016-08-02T14:54:07Z</DateUtc></StartTime><FrequencyChanges><FrequencyChange><Frequency dt:dt="r8">2793160000</Frequency><Timestamp dt:dt="r8">8.67591638185306E+15</Timestamp><Current dt:dt="r8">0</Current><DateUtc dt:dt="string">2016-08-02T14:54:07Z</DateUtc></FrequencyChange></FrequencyChanges></Clock>\n	TMA Blocker Split Nostril Olfactometer_Pilot 2-59-1	74.912	1.0.0.1473	1	0		-999999	12035	4767597	0	q	603510	5371107	1407065467	2.0.10.242	2.0.10.242	08-02-2016	8/2/2016 2:54:07 PM	10:54:07	2.0.10.147	16	NULL		NULL	SniffingInstructionsProc	NULL	SniffingInstructionsList	NULL	NULL	NULL	1	1	1	NULL	NULL	NULL	NULL	NULL	NULL	NULL	NULL	NULL	NULL	NULL	NULL	NULL	1	NULL	NULL		NULL	NULL	NULL	NULL	NULL	1	1	1	PrepareProc	NULL	NULL	NULL	NULL	NULL	NULL	NULL	NULL	NULL	NULL	NULL	NULL	NULL	NULL	NULL	NULL	NULL	Prepare	NULL	NULL	NULL	NULL	NULL	NULL	NULL	NULL	NULL	NULL	NULL	NULL	NULL	NULL	NULL	NULL	NULL	NULL	NULL	NULL	NULL	NULL	NULL	NULL	NULL	NULL	NULL	NULL	NULL	NULL	NULL	NULL	NULL	NULL	NULL	NULL	NULL	NULL	NULL	NULL	NULL	NULL	NULL	NULL	NULL	NULL	NULL
TMA Blocker Split Nostril Olfactometer_Pilot 2	59	1	<?xml version="1.0"?>\n<Clock xmlns:dt="urn:schemas-microsoft-com:datatypes"><Description dt:dt="string">E-Prime Primary Realtime Clock</Description><StartTime><Timestamp dt:dt="int">0</Timestamp><DateUtc dt:dt="string">2016-08-02T14:54:07Z</DateUtc></StartTime><FrequencyChanges><FrequencyChange><Frequency dt:dt="r8">2793160000</Frequency><Timestamp dt:dt="r8">8.67591638185306E+15</Timestamp><Current dt:dt="r8">0</Current><DateUtc dt:dt="string">2016-08-02T14:54:07Z</DateUtc></FrequencyChange></FrequencyChanges></Clock>\n	TMA Blocker Split Nostril Olfactometer_Pilot 2-59-1	74.912	1.0.0.1473	1	0		-999999	12035	4767597	0	q	603510	5371107	1407065467	2.0.10.242	2.0.10.242	08-02-2016	8/2/2016 2:54:07 PM	10:54:07	2.0.10.147	17	GREEN	NULL	NULL	TestProcA	NULL	Train1	NULL	NULL	NULL	NULL	NULL	NULL	NULL	NULL	NULL	NULL	NULL	NULL	Yes	1	1	1	NULL	NULL	NULL	1	NULL	Fishy	Green	546	NULL	3	24	NULL	NULL	NULL	NULL	training	Strength of the Odor (How fishy is it?)	NULL	NULL	NULL	NULL	NULL	NULL	NULL	NULL	NULL	NULL	NULL	NULL	NULL	NULL	NULL	NULL	TrainList	1	1	1	NULL	NULL	NULL	NULL	NULL	NULL	NULL	NULL	NULL	1	NULL	NULL	NULL	NULL	NULL	NULL	Green	NULL	NULL	NULL	NULL	NULL	NULL	NULL	NULL	NULL	NULL	NULL	NULL	1	2	2	PrepareProc	Strength of the Odor (How fishy is it?)	Prepare	NULL	NULL	NULL	NULL	NULL	NULL	NULL	NULL	NULL
TMA Blocker Split Nostril Olfactometer_Pilot 2	59	1	<?xml version="1.0"?>\n<Clock xmlns:dt="urn:schemas-microsoft-com:datatypes"><Description dt:dt="string">E-Prime Primary Realtime Clock</Description><StartTime><Timestamp dt:dt="int">0</Timestamp><DateUtc dt:dt="string">2016-08-02T14:54:07Z</DateUtc></StartTime><FrequencyChanges><FrequencyChange><Frequency dt:dt="r8">2793160000</Frequency><Timestamp dt:dt="r8">8.67591638185306E+15</Timestamp><Current dt:dt="r8">0</Current><DateUtc dt:dt="string">2016-08-02T14:54:07Z</DateUtc></FrequencyChange></FrequencyChanges></Clock>\n	TMA Blocker Split Nostril Olfactometer_Pilot 2-59-1	74.912	1.0.0.1473	1	0		-999999	12035	4767597	0	q	603510	5371107	1407065467	2.0.10.242	2.0.10.242	08-02-2016	8/2/2016 2:54:07 PM	10:54:07	2.0.10.147	17	GREEN	NULL	NULL	TestProcA	NULL	Train1	NULL	NULL	NULL	NULL	NULL	NULL	NULL	NULL	NULL	NULL	NULL	NULL	Yes	1	1	1	NULL	NULL	NULL	2	NULL	Green	Green	562	NULL	72	24	NULL	NULL	NULL	NULL	training	Strength of the Odor (How green is it?)	NULL	NULL	NULL	NULL	NULL	NULL	NULL	NULL	NULL	NULL	NULL	NULL	NULL	NULL	NULL	NULL	TrainList	2	1	2	NULL	NULL	NULL	NULL	NULL	NULL	NULL	NULL	NULL	1	NULL	NULL	NULL	NULL	NULL	NULL	Green	NULL	NULL	NULL	NULL	NULL	NULL	NULL	NULL	NULL	NULL	NULL	NULL	1	3	3	PrepareProc	Strength of the Odor (How green is it?)	Prepare	NULL	NULL	NULL	NULL	NULL	NULL	NULL	NULL	NULL
TMA Blocker Split Nostril Olfactometer_Pilot 2	59	1	<?xml version="1.0"?>\n<Clock xmlns:dt="urn:schemas-microsoft-com:datatypes"><Description dt:dt="string">E-Prime Primary Realtime Clock</Description><StartTime><Timestamp dt:dt="int">0</Timestamp><DateUtc dt:dt="string">2016-08-02T14:54:07Z</DateUtc></StartTime><FrequencyChanges><FrequencyChange><Frequency dt:dt="r8">2793160000</Frequency><Timestamp dt:dt="r8">8.67591638185306E+15</Timestamp><Current dt:dt="r8">0</Current><DateUtc dt:dt="string">2016-08-02T14:54:07Z</DateUtc></FrequencyChange></FrequencyChanges></Clock>\n	TMA Blocker Split Nostril Olfactometer_Pilot 2-59-1	74.912	1.0.0.1473	1	0		-999999	12035	4767597	0	q	603510	5371107	1407065467	2.0.10.242	2.0.10.242	08-02-2016	8/2/2016 2:54:07 PM	10:54:07	2.0.10.147	17	GREEN	NULL	NULL	TestProcA	NULL	Train1	NULL	NULL	NULL	NULL	NULL	NULL	NULL	NULL	NULL	NULL	NULL	NULL	Yes	1	1	1	NULL	NULL	NULL	3	1	NULL	Green	497	NULL	72	24	Green	NULL	NULL	NULL	Quiz	How strong is the odor?	2	1	1	NULL	NULL	NULL	1	1	-999999	39	2103437	0	1	23596	2127033	NULL	QuizList	NULL	NULL	NULL	NULL	NULL	NULL	NULL	NULL	NULL	NULL	NULL	NULL	1	NULL	1	NULL	NULL	NULL	NULL	Green	NULL	NULL	NULL	NULL	NULL	NULL	NULL	NULL	NULL	NULL	NULL	NULL	1	4	4	PrepareProc	How strong is the odor?	Prepare	NULL	NULL	NULL	NULL	NULL	NULL	NULL	NULL	NULL
TMA Blocker Split Nostril Olfactometer_Pilot 2	59	1	<?xml version="1.0"?>\n<Clock xmlns:dt="urn:schemas-microsoft-com:datatypes"><Description dt:dt="string">E-Prime Primary Realtime Clock</Description><StartTime><Timestamp dt:dt="int">0</Timestamp><DateUtc dt:dt="string">2016-08-02T14:54:07Z</DateUtc></StartTime><FrequencyChanges><FrequencyChange><Frequency dt:dt="r8">2793160000</Frequency><Timestamp dt:dt="r8">8.67591638185306E+15</Timestamp><Current dt:dt="r8">0</Current><DateUtc dt:dt="string">2016-08-02T14:54:07Z</DateUtc></FrequencyChange></FrequencyChanges></Clock>\n	TMA Blocker Split Nostril Olfactometer_Pilot 2-59-1	74.912	1.0.0.1473	1	0		-999999	12035	4767597	0	q	603510	5371107	1407065467	2.0.10.242	2.0.10.242	08-02-2016	8/2/2016 2:54:07 PM	10:54:07	2.0.10.147	17	GREEN	NULL	NULL	TestProcA	NULL	Train1	NULL	NULL	NULL	NULL	NULL	NULL	NULL	NULL	NULL	NULL	NULL	NULL	Yes	1	1	1	NULL	NULL	NULL	4	2	NULL	Green	539	NULL	66	9	Fishy	NULL	NULL	NULL	Quiz	How strong is the odor?	4	1	2	NULL	NULL	NULL	1	2	-999999	39	2177378	0	2	9125	2186503	NULL	QuizList	NULL	NULL	NULL	NULL	NULL	NULL	NULL	NULL	NULL	NULL	NULL	NULL	1	NULL	2	NULL	NULL	NULL	NULL	Green	NULL	NULL	NULL	NULL	NULL	NULL	NULL	NULL	NULL	NULL	NULL	NULL	1	5	5	PrepareProc	How strong is the odor?	Prepare	NULL	NULL	NULL	NULL	NULL	NULL	NULL	NULL	NULL
TMA Blocker Split Nostril Olfactometer_Pilot 2	59	1	<?xml version="1.0"?>\n<Clock xmlns:dt="urn:schemas-microsoft-com:datatypes"><Description dt:dt="string">E-Prime Primary Realtime Clock</Description><StartTime><Timestamp dt:dt="int">0</Timestamp><DateUtc dt:dt="string">2016-08-02T14:54:07Z</DateUtc></StartTime><FrequencyChanges><FrequencyChange><Frequency dt:dt="r8">2793160000</Frequency><Timestamp dt:dt="r8">8.67591638185306E+15</Timestamp><Current dt:dt="r8">0</Current><DateUtc dt:dt="string">2016-08-02T14:54:07Z</DateUtc></FrequencyChange></FrequencyChanges></Clock>\n	TMA Blocker Split Nostril Olfactometer_Pilot 2-59-1	74.912	1.0.0.1473	1	0		-999999	12035	4767597	0	q	603510	5371107	1407065467	2.0.10.242	2.0.10.242	08-02-2016	8/2/2016 2:54:07 PM	10:54:07	2.0.10.147	17	GREEN	NULL	NULL	TestProcA	NULL	Train1	NULL	NULL	NULL	NULL	NULL	NULL	NULL	NULL	NULL	NULL	NULL	NULL	Yes	1	1	1	NULL	NULL	NULL	5	1	NULL	Green	549	NULL	66	48	Green	NULL	NULL	NULL	Quiz	How strong is the odor?	3	1	3	NULL	NULL	NULL	1	1	-999999	39	2236194	0	1	4211	2240405	NULL	QuizList	NULL	NULL	NULL	NULL	NULL	NULL	NULL	NULL	NULL	NULL	NULL	NULL	1	NULL	1	NULL	NULL	NULL	NULL	Green	NULL	NULL	NULL	NULL	NULL	NULL	NULL	NULL	NULL	NULL	NULL	NULL	1	6	6	PrepareProc	How strong is the odor?	Prepare	NULL	NULL	NULL	NULL	NULL	NULL	NULL	NULL	NULL
TMA Blocker Split Nostril Olfactometer_Pilot 2	59	1	<?xml version="1.0"?>\n<Clock xmlns:dt="urn:schemas-microsoft-com:datatypes"><Description dt:dt="string">E-Prime Primary Realtime Clock</Description><StartTime><Timestamp dt:dt="int">0</Timestamp><DateUtc dt:dt="string">2016-08-02T14:54:07Z</DateUtc></StartTime><FrequencyChanges><FrequencyChange><Frequency dt:dt="r8">2793160000</Frequency><Timestamp dt:dt="r8">8.67591638185306E+15</Timestamp><Current dt:dt="r8">0</Current><DateUtc dt:dt="string">2016-08-02T14:54:07Z</DateUtc></FrequencyChange></FrequencyChanges></Clock>\n	TMA Blocker Split Nostril Olfactometer_Pilot 2-59-1	74.912	1.0.0.1473	1	0		-999999	12035	4767597	0	q	603510	5371107	1407065467	2.0.10.242	2.0.10.242	08-02-2016	8/2/2016 2:54:07 PM	10:54:07	2.0.10.147	17	GREEN	NULL	NULL	TestProcA	NULL	Train1	NULL	NULL	NULL	NULL	NULL	NULL	NULL	NULL	NULL	NULL	NULL	NULL	Yes	1	1	1	NULL	NULL	NULL	6	2	NULL	Green	495	NULL	3	24	Fishy	NULL	NULL	NULL	Quiz	How strong is the odor?	1	1	4	NULL	NULL	NULL	1	2	-999999	39	2288015	0	2	2701	2290716	NULL	QuizList	NULL	NULL	NULL	NULL	NULL	NULL	NULL	NULL	NULL	NULL	NULL	NULL	1	NULL	2	NULL	NULL	NULL	NULL	Green	NULL	NULL	NULL	NULL	NULL	NULL	NULL	NULL	NULL	NULL	NULL	NULL	1	7	7	PrepareProc	How strong is the odor?	Prepare	NULL	NULL	NULL	NULL	NULL	NULL	NULL	NULL	NULL
TMA Blocker Split Nostril Olfactometer_Pilot 2	59	1	<?xml version="1.0"?>\n<Clock xmlns:dt="urn:schemas-microsoft-com:datatypes"><Description dt:dt="string">E-Prime Primary Realtime Clock</Description><StartTime><Timestamp dt:dt="int">0</Timestamp><DateUtc dt:dt="string">2016-08-02T14:54:07Z</DateUtc></StartTime><FrequencyChanges><FrequencyChange><Frequency dt:dt="r8">2793160000</Frequency><Timestamp dt:dt="r8">8.67591638185306E+15</Timestamp><Current dt:dt="r8">0</Current><DateUtc dt:dt="string">2016-08-02T14:54:07Z</DateUtc></FrequencyChange></FrequencyChanges></Clock>\n	TMA Blocker Split Nostril Olfactometer_Pilot 2-59-1	74.912	1.0.0.1473	1	0		-999999	12035	4767597	0	q	603510	5371107	1407065467	2.0.10.242	2.0.10.242	08-02-2016	8/2/2016 2:54:07 PM	10:54:07	2.0.10.147	18	GREEN	NULL	NULL	BlockProcA	NULL	Test1	NULL	NULL	NULL	NULL	NULL	NULL	1	1	1	NULL	NULL	NULL	No	NULL	NULL	NULL	NULL	NULL	NULL	1	NULL	NULL	NULL	NULL	Nonenol	72	9	NULL	NULL	NULL	NULL	TrialProc	NULL	NULL	NULL	NULL	NULL	NULL	NULL	NULL	NULL	NULL	NULL	NULL	NULL	NULL	NULL	NULL	TMA	TrialList	NULL	NULL	NULL	NULL	NULL	NULL	8	1	1	NULL	NULL	NULL	1	NULL	NULL	NULL	NULL	NULL	NULL	NULL	NULL	NULL	NULL	NULL	NULL	NULL	NULL	NULL	NULL	NULL	NULL	NULL	1	8	8	PrepareProc	NULL	Prepare	NULL	NULL	NULL	NULL	NULL	NULL	NULL	NULL	NULL
TMA Blocker Split Nostril Olfactometer_Pilot 2	59	1	<?xml version="1.0"?>\n<Clock xmlns:dt="urn:schemas-microsoft-com:datatypes"><Description dt:dt="string">E-Prime Primary Realtime Clock</Description><StartTime><Timestamp dt:dt="int">0</Timestamp><DateUtc dt:dt="string">2016-08-02T14:54:07Z</DateUtc></StartTime><FrequencyChanges><FrequencyChange><Frequency dt:dt="r8">2793160000</Frequency><Timestamp dt:dt="r8">8.67591638185306E+15</Timestamp><Current dt:dt="r8">0</Current><DateUtc dt:dt="string">2016-08-02T14:54:07Z</DateUtc></FrequencyChange></FrequencyChanges></Clock>\n	TMA Blocker Split Nostril Olfactometer_Pilot 2-59-1	74.912	1.0.0.1473	1	0		-999999	12035	4767597	0	q	603510	5371107	1407065467	2.0.10.242	2.0.10.242	08-02-2016	8/2/2016 2:54:07 PM	10:54:07	2.0.10.147	18	GREEN	NULL	NULL	BlockProcA	NULL	Test1	NULL	NULL	NULL	NULL	NULL	NULL	1	1	1	NULL	NULL	NULL	No	NULL	NULL	NULL	NULL	NULL	NULL	1	NULL	NULL	NULL	NULL	Nonenol	72	9	NULL	NULL	NULL	NULL	TrialProc	NULL	NULL	NULL	NULL	NULL	NULL	NULL	NULL	NULL	NULL	NULL	NULL	NULL	NULL	NULL	NULL	TMA	TrialList	NULL	NULL	NULL	NULL	NULL	NULL	8	1	1	NULL	NULL	NULL	2	NULL	NULL	1	1	1	NULL	Green	492	551	NULL	NULL	NULL	NULL	NULL	NULL	NULL	NULL	NULL	1	NULL	NULL	NULL	ExperimentProc	How intense is the odor?	Experiment	NULL	NULL	NULL	NULL	NULL	NULL	NULL	NULL	?
TMA Blocker Split Nostril Olfactometer_Pilot 2	59	1	<?xml version="1.0"?>\n<Clock xmlns:dt="urn:schemas-microsoft-com:datatypes"><Description dt:dt="string">E-Prime Primary Realtime Clock</Description><StartTime><Timestamp dt:dt="int">0</Timestamp><DateUtc dt:dt="string">2016-08-02T14:54:07Z</DateUtc></StartTime><FrequencyChanges><FrequencyChange><Frequency dt:dt="r8">2793160000</Frequency><Timestamp dt:dt="r8">8.67591638185306E+15</Timestamp><Current dt:dt="r8">0</Current><DateUtc dt:dt="string">2016-08-02T14:54:07Z</DateUtc></FrequencyChange></FrequencyChanges></Clock>\n	TMA Blocker Split Nostril Olfactometer_Pilot 2-59-1	74.912	1.0.0.1473	1	0		-999999	12035	4767597	0	q	603510	5371107	1407065467	2.0.10.242	2.0.10.242	08-02-2016	8/2/2016 2:54:07 PM	10:54:07	2.0.10.147	18	GREEN	NULL	NULL	BlockProcA	NULL	Test1	NULL	NULL	NULL	NULL	NULL	NULL	1	1	1	NULL	NULL	NULL	No	NULL	NULL	NULL	NULL	NULL	NULL	1	NULL	NULL	NULL	NULL	Nonenol	72	9	NULL	NULL	NULL	NULL	TrialProc	NULL	NULL	NULL	NULL	NULL	NULL	NULL	NULL	NULL	NULL	NULL	NULL	NULL	NULL	NULL	NULL	TMA	TrialList	NULL	NULL	NULL	NULL	NULL	NULL	8	1	1	NULL	NULL	NULL	3	NULL	1	NULL	NULL	NULL	NULL	NULL	NULL	NULL	1	1	-999999	13	2428061	0	1	2875	2430936	NULL	NULL	NULL	NULL	SongTrial	NULL	SoundList	NULL	NULL	10	1	1	NULL	NULL	NULL	NULL
TMA Blocker Split Nostril Olfactometer_Pilot 2	59	1	<?xml version="1.0"?>\n<Clock xmlns:dt="urn:schemas-microsoft-com:datatypes"><Description dt:dt="string">E-Prime Primary Realtime Clock</Description><StartTime><Timestamp dt:dt="int">0</Timestamp><DateUtc dt:dt="string">2016-08-02T14:54:07Z</DateUtc></StartTime><FrequencyChanges><FrequencyChange><Frequency dt:dt="r8">2793160000</Frequency><Timestamp dt:dt="r8">8.67591638185306E+15</Timestamp><Current dt:dt="r8">0</Current><DateUtc dt:dt="string">2016-08-02T14:54:07Z</DateUtc></FrequencyChange></FrequencyChanges></Clock>\n	TMA Blocker Split Nostril Olfactometer_Pilot 2-59-1	74.912	1.0.0.1473	1	0		-999999	12035	4767597	0	q	603510	5371107	1407065467	2.0.10.242	2.0.10.242	08-02-2016	8/2/2016 2:54:07 PM	10:54:07	2.0.10.147	18	GREEN	NULL	NULL	BlockProcA	NULL	Test1	NULL	NULL	NULL	NULL	NULL	NULL	1	1	1	NULL	NULL	NULL	No	NULL	NULL	NULL	NULL	NULL	NULL	2	NULL	NULL	NULL	NULL	Blank	66	48	NULL	NULL	NULL	NULL	TrialProc	NULL	NULL	NULL	NULL	NULL	NULL	NULL	NULL	NULL	NULL	NULL	NULL	NULL	NULL	NULL	NULL	Nonenol	TrialList	NULL	NULL	NULL	NULL	NULL	NULL	4	1	2	NULL	NULL	NULL	1	NULL	NULL	NULL	NULL	NULL	NULL	NULL	NULL	NULL	NULL	NULL	NULL	NULL	NULL	NULL	NULL	NULL	NULL	NULL	1	9	9	PrepareProc	NULL	Prepare	NULL	NULL	NULL	NULL	NULL	NULL	NULL	NULL	NULL
TMA Blocker Split Nostril Olfactometer_Pilot 2	59	1	<?xml version="1.0"?>\n<Clock xmlns:dt="urn:schemas-microsoft-com:datatypes"><Description dt:dt="string">E-Prime Primary Realtime Clock</Description><StartTime><Timestamp dt:dt="int">0</Timestamp><DateUtc dt:dt="string">2016-08-02T14:54:07Z</DateUtc></StartTime><FrequencyChanges><FrequencyChange><Frequency dt:dt="r8">2793160000</Frequency><Timestamp dt:dt="r8">8.67591638185306E+15</Timestamp><Current dt:dt="r8">0</Current><DateUtc dt:dt="string">2016-08-02T14:54:07Z</DateUtc></FrequencyChange></FrequencyChanges></Clock>\n	TMA Blocker Split Nostril Olfactometer_Pilot 2-59-1	74.912	1.0.0.1473	1	0		-999999	12035	4767597	0	q	603510	5371107	1407065467	2.0.10.242	2.0.10.242	08-02-2016	8/2/2016 2:54:07 PM	10:54:07	2.0.10.147	18	GREEN	NULL	NULL	BlockProcA	NULL	Test1	NULL	NULL	NULL	NULL	NULL	NULL	1	1	1	NULL	NULL	NULL	No	NULL	NULL	NULL	NULL	NULL	NULL	2	NULL	NULL	NULL	NULL	Blank	66	48	NULL	NULL	NULL	NULL	TrialProc	NULL	NULL	NULL	NULL	NULL	NULL	NULL	NULL	NULL	NULL	NULL	NULL	NULL	NULL	NULL	NULL	Nonenol	TrialList	NULL	NULL	NULL	NULL	NULL	NULL	4	1	2	NULL	NULL	NULL	2	NULL	NULL	1	2	2	NULL	Green	395	567	NULL	NULL	NULL	NULL	NULL	NULL	NULL	NULL	NULL	1	NULL	NULL	NULL	ExperimentProc	How intense is the odor?	Experiment	NULL	NULL	NULL	NULL	NULL	NULL	NULL	NULL	?
TMA Blocker Split Nostril Olfactometer_Pilot 2	59	1	<?xml version="1.0"?>\n<Clock xmlns:dt="urn:schemas-microsoft-com:datatypes"><Description dt:dt="string">E-Prime Primary Realtime Clock</Description><StartTime><Timestamp dt:dt="int">0</Timestamp><DateUtc dt:dt="string">2016-08-02T14:54:07Z</DateUtc></StartTime><FrequencyChanges><FrequencyChange><Frequency dt:dt="r8">2793160000</Frequency><Timestamp dt:dt="r8">8.67591638185306E+15</Timestamp><Current dt:dt="r8">0</Current><DateUtc dt:dt="string">2016-08-02T14:54:07Z</DateUtc></FrequencyChange></FrequencyChanges></Clock>\n	TMA Blocker Split Nostril Olfactometer_Pilot 2-59-1	74.912	1.0.0.1473	1	0		-999999	12035	4767597	0	q	603510	5371107	1407065467	2.0.10.242	2.0.10.242	08-02-2016	8/2/2016 2:54:07 PM	10:54:07	2.0.10.147	18	GREEN	NULL	NULL	BlockProcA	NULL	Test1	NULL	NULL	NULL	NULL	NULL	NULL	1	1	1	NULL	NULL	NULL	No	NULL	NULL	NULL	NULL	NULL	NULL	2	NULL	NULL	NULL	NULL	Blank	66	48	NULL	NULL	NULL	NULL	TrialProc	NULL	NULL	NULL	NULL	NULL	NULL	NULL	NULL	NULL	NULL	NULL	NULL	NULL	NULL	NULL	NULL	Nonenol	TrialList	NULL	NULL	NULL	NULL	NULL	NULL	4	1	2	NULL	NULL	NULL	3	NULL	1	NULL	NULL	NULL	NULL	NULL	NULL	NULL	0	1	-999999	13	2477519	0	2	1088	2478607	NULL	NULL	NULL	NULL	SongTrial	NULL	SoundList	NULL	NULL	1	1	2	NULL	NULL	NULL	NULL
TMA Blocker Split Nostril Olfactometer_Pilot 2	59	1	<?xml version="1.0"?>\n<Clock xmlns:dt="urn:schemas-microsoft-com:datatypes"><Description dt:dt="string">E-Prime Primary Realtime Clock</Description><StartTime><Timestamp dt:dt="int">0</Timestamp><DateUtc dt:dt="string">2016-08-02T14:54:07Z</DateUtc></StartTime><FrequencyChanges><FrequencyChange><Frequency dt:dt="r8">2793160000</Frequency><Timestamp dt:dt="r8">8.67591638185306E+15</Timestamp><Current dt:dt="r8">0</Current><DateUtc dt:dt="string">2016-08-02T14:54:07Z</DateUtc></FrequencyChange></FrequencyChanges></Clock>\n	TMA Blocker Split Nostril Olfactometer_Pilot 2-59-1	74.912	1.0.0.1473	1	0		-999999	12035	4767597	0	q	603510	5371107	1407065467	2.0.10.242	2.0.10.242	08-02-2016	8/2/2016 2:54:07 PM	10:54:07	2.0.10.147	18	GREEN	NULL	NULL	BlockProcA	NULL	Test1	NULL	NULL	NULL	NULL	NULL	NULL	1	1	1	NULL	NULL	NULL	No	NULL	NULL	NULL	NULL	NULL	NULL	3	NULL	NULL	NULL	NULL	Nonenol	72	24	NULL	NULL	NULL	NULL	TrialProc	NULL	NULL	NULL	NULL	NULL	NULL	NULL	NULL	NULL	NULL	NULL	NULL	NULL	NULL	NULL	NULL	Blank	TrialList	NULL	NULL	NULL	NULL	NULL	NULL	3	1	3	NULL	NULL	NULL	1	NULL	NULL	NULL	NULL	NULL	NULL	NULL	NULL	NULL	NULL	NULL	NULL	NULL	NULL	NULL	NULL	NULL	NULL	NULL	1	10	10	PrepareProc	NULL	Prepare	NULL	NULL	NULL	NULL	NULL	NULL	NULL	NULL	NULL
TMA Blocker Split Nostril Olfactometer_Pilot 2	59	1	<?xml version="1.0"?>\n<Clock xmlns:dt="urn:schemas-microsoft-com:datatypes"><Description dt:dt="string">E-Prime Primary Realtime Clock</Description><StartTime><Timestamp dt:dt="int">0</Timestamp><DateUtc dt:dt="string">2016-08-02T14:54:07Z</DateUtc></StartTime><FrequencyChanges><FrequencyChange><Frequency dt:dt="r8">2793160000</Frequency><Timestamp dt:dt="r8">8.67591638185306E+15</Timestamp><Current dt:dt="r8">0</Current><DateUtc dt:dt="string">2016-08-02T14:54:07Z</DateUtc></FrequencyChange></FrequencyChanges></Clock>\n	TMA Blocker Split Nostril Olfactometer_Pilot 2-59-1	74.912	1.0.0.1473	1	0		-999999	12035	4767597	0	q	603510	5371107	1407065467	2.0.10.242	2.0.10.242	08-02-2016	8/2/2016 2:54:07 PM	10:54:07	2.0.10.147	18	GREEN	NULL	NULL	BlockProcA	NULL	Test1	NULL	NULL	NULL	NULL	NULL	NULL	1	1	1	NULL	NULL	NULL	No	NULL	NULL	NULL	NULL	NULL	NULL	3	NULL	NULL	NULL	NULL	Nonenol	72	24	NULL	NULL	NULL	NULL	TrialProc	NULL	NULL	NULL	NULL	NULL	NULL	NULL	NULL	NULL	NULL	NULL	NULL	NULL	NULL	NULL	NULL	Blank	TrialList	NULL	NULL	NULL	NULL	NULL	NULL	3	1	3	NULL	NULL	NULL	2	NULL	NULL	1	3	3	NULL	Green	546	577	NULL	NULL	NULL	NULL	NULL	NULL	NULL	NULL	NULL	1	NULL	NULL	NULL	ExperimentProc	How intense is the odor?	Experiment	NULL	NULL	NULL	NULL	NULL	NULL	NULL	NULL	?
TMA Blocker Split Nostril Olfactometer_Pilot 2	59	1	<?xml version="1.0"?>\n<Clock xmlns:dt="urn:schemas-microsoft-com:datatypes"><Description dt:dt="string">E-Prime Primary Realtime Clock</Description><StartTime><Timestamp dt:dt="int">0</Timestamp><DateUtc dt:dt="string">2016-08-02T14:54:07Z</DateUtc></StartTime><FrequencyChanges><FrequencyChange><Frequency dt:dt="r8">2793160000</Frequency><Timestamp dt:dt="r8">8.67591638185306E+15</Timestamp><Current dt:dt="r8">0</Current><DateUtc dt:dt="string">2016-08-02T14:54:07Z</DateUtc></FrequencyChange></FrequencyChanges></Clock>\n	TMA Blocker Split Nostril Olfactometer_Pilot 2-59-1	74.912	1.0.0.1473	1	0		-999999	12035	4767597	0	q	603510	5371107	1407065467	2.0.10.242	2.0.10.242	08-02-2016	8/2/2016 2:54:07 PM	10:54:07	2.0.10.147	18	GREEN	NULL	NULL	BlockProcA	NULL	Test1	NULL	NULL	NULL	NULL	NULL	NULL	1	1	1	NULL	NULL	NULL	No	NULL	NULL	NULL	NULL	NULL	NULL	3	NULL	NULL	NULL	NULL	Nonenol	72	24	NULL	NULL	NULL	NULL	TrialProc	NULL	NULL	NULL	NULL	NULL	NULL	NULL	NULL	NULL	NULL	NULL	NULL	NULL	NULL	NULL	NULL	Blank	TrialList	NULL	NULL	NULL	NULL	NULL	NULL	3	1	3	NULL	NULL	NULL	3	NULL	1	NULL	NULL	NULL	NULL	NULL	NULL	NULL	0	1	-999999	13	2524762	0	2	1883	2526645	NULL	NULL	NULL	NULL	SongTrial	NULL	SoundList	NULL	NULL	9	1	3	NULL	NULL	NULL	NULL
TMA Blocker Split Nostril Olfactometer_Pilot 2	59	1	<?xml version="1.0"?>\n<Clock xmlns:dt="urn:schemas-microsoft-com:datatypes"><Description dt:dt="string">E-Prime Primary Realtime Clock</Description><StartTime><Timestamp dt:dt="int">0</Timestamp><DateUtc dt:dt="string">2016-08-02T14:54:07Z</DateUtc></StartTime><FrequencyChanges><FrequencyChange><Frequency dt:dt="r8">2793160000</Frequency><Timestamp dt:dt="r8">8.67591638185306E+15</Timestamp><Current dt:dt="r8">0</Current><DateUtc dt:dt="string">2016-08-02T14:54:07Z</DateUtc></FrequencyChange></FrequencyChanges></Clock>\n	TMA Blocker Split Nostril Olfactometer_Pilot 2-59-1	74.912	1.0.0.1473	1	0		-999999	12035	4767597	0	q	603510	5371107	1407065467	2.0.10.242	2.0.10.242	08-02-2016	8/2/2016 2:54:07 PM	10:54:07	2.0.10.147	18	GREEN	NULL	NULL	BlockProcA	NULL	Test1	NULL	NULL	NULL	NULL	NULL	NULL	1	1	1	NULL	NULL	NULL	No	NULL	NULL	NULL	NULL	NULL	NULL	4	NULL	NULL	NULL	NULL	Blank	66	9	NULL	NULL	NULL	NULL	TrialProc	NULL	NULL	NULL	NULL	NULL	NULL	NULL	NULL	NULL	NULL	NULL	NULL	NULL	NULL	NULL	NULL	TMA	TrialList	NULL	NULL	NULL	NULL	NULL	NULL	2	1	4	NULL	NULL	NULL	1	NULL	NULL	NULL	NULL	NULL	NULL	NULL	NULL	NULL	NULL	NULL	NULL	NULL	NULL	NULL	NULL	NULL	NULL	NULL	1	11	11	PrepareProc	NULL	Prepare	NULL	NULL	NULL	NULL	NULL	NULL	NULL	NULL	NULL
TMA Blocker Split Nostril Olfactometer_Pilot 2	59	1	<?xml version="1.0"?>\n<Clock xmlns:dt="urn:schemas-microsoft-com:datatypes"><Description dt:dt="string">E-Prime Primary Realtime Clock</Description><StartTime><Timestamp dt:dt="int">0</Timestamp><DateUtc dt:dt="string">2016-08-02T14:54:07Z</DateUtc></StartTime><FrequencyChanges><FrequencyChange><Frequency dt:dt="r8">2793160000</Frequency><Timestamp dt:dt="r8">8.67591638185306E+15</Timestamp><Current dt:dt="r8">0</Current><DateUtc dt:dt="string">2016-08-02T14:54:07Z</DateUtc></FrequencyChange></FrequencyChanges></Clock>\n	TMA Blocker Split Nostril Olfactometer_Pilot 2-59-1	74.912	1.0.0.1473	1	0		-999999	12035	4767597	0	q	603510	5371107	1407065467	2.0.10.242	2.0.10.242	08-02-2016	8/2/2016 2:54:07 PM	10:54:07	2.0.10.147	18	GREEN	NULL	NULL	BlockProcA	NULL	Test1	NULL	NULL	NULL	NULL	NULL	NULL	1	1	1	NULL	NULL	NULL	No	NULL	NULL	NULL	NULL	NULL	NULL	4	NULL	NULL	NULL	NULL	Blank	66	9	NULL	NULL	NULL	NULL	TrialProc	NULL	NULL	NULL	NULL	NULL	NULL	NULL	NULL	NULL	NULL	NULL	NULL	NULL	NULL	NULL	NULL	TMA	TrialList	NULL	NULL	NULL	NULL	NULL	NULL	2	1	4	NULL	NULL	NULL	2	NULL	NULL	1	4	4	NULL	Green	551	550	NULL	NULL	NULL	NULL	NULL	NULL	NULL	NULL	NULL	1	NULL	NULL	NULL	ExperimentProc	How intense is the odor?	Experiment	NULL	NULL	NULL	NULL	NULL	NULL	NULL	NULL	?
TMA Blocker Split Nostril Olfactometer_Pilot 2	59	1	<?xml version="1.0"?>\n<Clock xmlns:dt="urn:schemas-microsoft-com:datatypes"><Description dt:dt="string">E-Prime Primary Realtime Clock</Description><StartTime><Timestamp dt:dt="int">0</Timestamp><DateUtc dt:dt="string">2016-08-02T14:54:07Z</DateUtc></StartTime><FrequencyChanges><FrequencyChange><Frequency dt:dt="r8">2793160000</Frequency><Timestamp dt:dt="r8">8.67591638185306E+15</Timestamp><Current dt:dt="r8">0</Current><DateUtc dt:dt="string">2016-08-02T14:54:07Z</DateUtc></FrequencyChange></FrequencyChanges></Clock>\n	TMA Blocker Split Nostril Olfactometer_Pilot 2-59-1	74.912	1.0.0.1473	1	0		-999999	12035	4767597	0	q	603510	5371107	1407065467	2.0.10.242	2.0.10.242	08-02-2016	8/2/2016 2:54:07 PM	10:54:07	2.0.10.147	18	GREEN	NULL	NULL	BlockProcA	NULL	Test1	NULL	NULL	NULL	NULL	NULL	NULL	1	1	1	NULL	NULL	NULL	No	NULL	NULL	NULL	NULL	NULL	NULL	4	NULL	NULL	NULL	NULL	Blank	66	9	NULL	NULL	NULL	NULL	TrialProc	NULL	NULL	NULL	NULL	NULL	NULL	NULL	NULL	NULL	NULL	NULL	NULL	NULL	NULL	NULL	NULL	TMA	TrialList	NULL	NULL	NULL	NULL	NULL	NULL	2	1	4	NULL	NULL	NULL	3	NULL	1	NULL	NULL	NULL	NULL	NULL	NULL	NULL	1	1	-999999	13	2572445	0	1	1807	2574252	NULL	NULL	NULL	NULL	SongTrial	NULL	SoundList	NULL	NULL	5	1	4	NULL	NULL	NULL	NULL
TMA Blocker Split Nostril Olfactometer_Pilot 2	59	1	<?xml version="1.0"?>\n<Clock xmlns:dt="urn:schemas-microsoft-com:datatypes"><Description dt:dt="string">E-Prime Primary Realtime Clock</Description><StartTime><Timestamp dt:dt="int">0</Timestamp><DateUtc dt:dt="string">2016-08-02T14:54:07Z</DateUtc></StartTime><FrequencyChanges><FrequencyChange><Frequency dt:dt="r8">2793160000</Frequency><Timestamp dt:dt="r8">8.67591638185306E+15</Timestamp><Current dt:dt="r8">0</Current><DateUtc dt:dt="string">2016-08-02T14:54:07Z</DateUtc></FrequencyChange></FrequencyChanges></Clock>\n	TMA Blocker Split Nostril Olfactometer_Pilot 2-59-1	74.912	1.0.0.1473	1	0		-999999	12035	4767597	0	q	603510	5371107	1407065467	2.0.10.242	2.0.10.242	08-02-2016	8/2/2016 2:54:07 PM	10:54:07	2.0.10.147	18	GREEN	NULL	NULL	BlockProcA	NULL	Test1	NULL	NULL	NULL	NULL	NULL	NULL	1	1	1	NULL	NULL	NULL	No	NULL	NULL	NULL	NULL	NULL	NULL	5	NULL	NULL	NULL	NULL	TMA	3	24	NULL	NULL	NULL	NULL	TrialProc	NULL	NULL	NULL	NULL	NULL	NULL	NULL	NULL	NULL	NULL	NULL	NULL	NULL	NULL	NULL	NULL	Blank	TrialList	NULL	NULL	NULL	NULL	NULL	NULL	1	1	5	NULL	NULL	NULL	1	NULL	NULL	NULL	NULL	NULL	NULL	NULL	NULL	NULL	NULL	NULL	NULL	NULL	NULL	NULL	NULL	NULL	NULL	NULL	1	12	12	PrepareProc	NULL	Prepare	NULL	NULL	NULL	NULL	NULL	NULL	NULL	NULL	NULL
TMA Blocker Split Nostril Olfactometer_Pilot 2	59	1	<?xml version="1.0"?>\n<Clock xmlns:dt="urn:schemas-microsoft-com:datatypes"><Description dt:dt="string">E-Prime Primary Realtime Clock</Description><StartTime><Timestamp dt:dt="int">0</Timestamp><DateUtc dt:dt="string">2016-08-02T14:54:07Z</DateUtc></StartTime><FrequencyChanges><FrequencyChange><Frequency dt:dt="r8">2793160000</Frequency><Timestamp dt:dt="r8">8.67591638185306E+15</Timestamp><Current dt:dt="r8">0</Current><DateUtc dt:dt="string">2016-08-02T14:54:07Z</DateUtc></FrequencyChange></FrequencyChanges></Clock>\n	TMA Blocker Split Nostril Olfactometer_Pilot 2-59-1	74.912	1.0.0.1473	1	0		-999999	12035	4767597	0	q	603510	5371107	1407065467	2.0.10.242	2.0.10.242	08-02-2016	8/2/2016 2:54:07 PM	10:54:07	2.0.10.147	18	GREEN	NULL	NULL	BlockProcA	NULL	Test1	NULL	NULL	NULL	NULL	NULL	NULL	1	1	1	NULL	NULL	NULL	No	NULL	NULL	NULL	NULL	NULL	NULL	5	NULL	NULL	NULL	NULL	TMA	3	24	NULL	NULL	NULL	NULL	TrialProc	NULL	NULL	NULL	NULL	NULL	NULL	NULL	NULL	NULL	NULL	NULL	NULL	NULL	NULL	NULL	NULL	Blank	TrialList	NULL	NULL	NULL	NULL	NULL	NULL	1	1	5	NULL	NULL	NULL	2	NULL	NULL	1	5	5	NULL	Green	550	473	NULL	NULL	NULL	NULL	NULL	NULL	NULL	NULL	NULL	1	NULL	NULL	NULL	ExperimentProc	How intense is the odor?	Experiment	NULL	NULL	NULL	NULL	NULL	NULL	NULL	NULL	?
TMA Blocker Split Nostril Olfactometer_Pilot 2	59	1	<?xml version="1.0"?>\n<Clock xmlns:dt="urn:schemas-microsoft-com:datatypes"><Description dt:dt="string">E-Prime Primary Realtime Clock</Description><StartTime><Timestamp dt:dt="int">0</Timestamp><DateUtc dt:dt="string">2016-08-02T14:54:07Z</DateUtc></StartTime><FrequencyChanges><FrequencyChange><Frequency dt:dt="r8">2793160000</Frequency><Timestamp dt:dt="r8">8.67591638185306E+15</Timestamp><Current dt:dt="r8">0</Current><DateUtc dt:dt="string">2016-08-02T14:54:07Z</DateUtc></FrequencyChange></FrequencyChanges></Clock>\n	TMA Blocker Split Nostril Olfactometer_Pilot 2-59-1	74.912	1.0.0.1473	1	0		-999999	12035	4767597	0	q	603510	5371107	1407065467	2.0.10.242	2.0.10.242	08-02-2016	8/2/2016 2:54:07 PM	10:54:07	2.0.10.147	18	GREEN	NULL	NULL	BlockProcA	NULL	Test1	NULL	NULL	NULL	NULL	NULL	NULL	1	1	1	NULL	NULL	NULL	No	NULL	NULL	NULL	NULL	NULL	NULL	5	NULL	NULL	NULL	NULL	TMA	3	24	NULL	NULL	NULL	NULL	TrialProc	NULL	NULL	NULL	NULL	NULL	NULL	NULL	NULL	NULL	NULL	NULL	NULL	NULL	NULL	NULL	NULL	Blank	TrialList	NULL	NULL	NULL	NULL	NULL	NULL	1	1	5	NULL	NULL	NULL	3	NULL	2	NULL	NULL	NULL	NULL	NULL	NULL	NULL	1	2	-999999	13	2618673	0	2	418	2619091	NULL	NULL	NULL	NULL	SongTrial	NULL	SoundList	NULL	NULL	2	1	5	NULL	NULL	NULL	NULL
TMA Blocker Split Nostril Olfactometer_Pilot 2	59	1	<?xml version="1.0"?>\n<Clock xmlns:dt="urn:schemas-microsoft-com:datatypes"><Description dt:dt="string">E-Prime Primary Realtime Clock</Description><StartTime><Timestamp dt:dt="int">0</Timestamp><DateUtc dt:dt="string">2016-08-02T14:54:07Z</DateUtc></StartTime><FrequencyChanges><FrequencyChange><Frequency dt:dt="r8">2793160000</Frequency><Timestamp dt:dt="r8">8.67591638185306E+15</Timestamp><Current dt:dt="r8">0</Current><DateUtc dt:dt="string">2016-08-02T14:54:07Z</DateUtc></FrequencyChange></FrequencyChanges></Clock>\n	TMA Blocker Split Nostril Olfactometer_Pilot 2-59-1	74.912	1.0.0.1473	1	0		-999999	12035	4767597	0	q	603510	5371107	1407065467	2.0.10.242	2.0.10.242	08-02-2016	8/2/2016 2:54:07 PM	10:54:07	2.0.10.147	18	GREEN	NULL	NULL	BlockProcA	NULL	Test1	NULL	NULL	NULL	NULL	NULL	NULL	1	1	1	NULL	NULL	NULL	No	NULL	NULL	NULL	NULL	NULL	NULL	6	NULL	NULL	NULL	NULL	Blank	66	33	NULL	NULL	NULL	NULL	TrialProc	NULL	NULL	NULL	NULL	NULL	NULL	NULL	NULL	NULL	NULL	NULL	NULL	NULL	NULL	NULL	NULL	TMA+Nonenol	TrialList	NULL	NULL	NULL	NULL	NULL	NULL	6	1	6	NULL	NULL	NULL	1	NULL	NULL	NULL	NULL	NULL	NULL	NULL	NULL	NULL	NULL	NULL	NULL	NULL	NULL	NULL	NULL	NULL	NULL	NULL	1	13	13	PrepareProc	NULL	Prepare	NULL	NULL	NULL	NULL	NULL	NULL	NULL	NULL	NULL
TMA Blocker Split Nostril Olfactometer_Pilot 2	59	1	<?xml version="1.0"?>\n<Clock xmlns:dt="urn:schemas-microsoft-com:datatypes"><Description dt:dt="string">E-Prime Primary Realtime Clock</Description><StartTime><Timestamp dt:dt="int">0</Timestamp><DateUtc dt:dt="string">2016-08-02T14:54:07Z</DateUtc></StartTime><FrequencyChanges><FrequencyChange><Frequency dt:dt="r8">2793160000</Frequency><Timestamp dt:dt="r8">8.67591638185306E+15</Timestamp><Current dt:dt="r8">0</Current><DateUtc dt:dt="string">2016-08-02T14:54:07Z</DateUtc></FrequencyChange></FrequencyChanges></Clock>\n	TMA Blocker Split Nostril Olfactometer_Pilot 2-59-1	74.912	1.0.0.1473	1	0		-999999	12035	4767597	0	q	603510	5371107	1407065467	2.0.10.242	2.0.10.242	08-02-2016	8/2/2016 2:54:07 PM	10:54:07	2.0.10.147	18	GREEN	NULL	NULL	BlockProcA	NULL	Test1	NULL	NULL	NULL	NULL	NULL	NULL	1	1	1	NULL	NULL	NULL	No	NULL	NULL	NULL	NULL	NULL	NULL	6	NULL	NULL	NULL	NULL	Blank	66	33	NULL	NULL	NULL	NULL	TrialProc	NULL	NULL	NULL	NULL	NULL	NULL	NULL	NULL	NULL	NULL	NULL	NULL	NULL	NULL	NULL	NULL	TMA+Nonenol	TrialList	NULL	NULL	NULL	NULL	NULL	NULL	6	1	6	NULL	NULL	NULL	2	NULL	NULL	1	6	6	NULL	Green	512	496	NULL	NULL	NULL	NULL	NULL	NULL	NULL	NULL	NULL	1	NULL	NULL	NULL	ExperimentProc	How intense is the odor?	Experiment	NULL	NULL	NULL	NULL	NULL	NULL	NULL	NULL	?
TMA Blocker Split Nostril Olfactometer_Pilot 2	59	1	<?xml version="1.0"?>\n<Clock xmlns:dt="urn:schemas-microsoft-com:datatypes"><Description dt:dt="string">E-Prime Primary Realtime Clock</Description><StartTime><Timestamp dt:dt="int">0</Timestamp><DateUtc dt:dt="string">2016-08-02T14:54:07Z</DateUtc></StartTime><FrequencyChanges><FrequencyChange><Frequency dt:dt="r8">2793160000</Frequency><Timestamp dt:dt="r8">8.67591638185306E+15</Timestamp><Current dt:dt="r8">0</Current><DateUtc dt:dt="string">2016-08-02T14:54:07Z</DateUtc></FrequencyChange></FrequencyChanges></Clock>\n	TMA Blocker Split Nostril Olfactometer_Pilot 2-59-1	74.912	1.0.0.1473	1	0		-999999	12035	4767597	0	q	603510	5371107	1407065467	2.0.10.242	2.0.10.242	08-02-2016	8/2/2016 2:54:07 PM	10:54:07	2.0.10.147	18	GREEN	NULL	NULL	BlockProcA	NULL	Test1	NULL	NULL	NULL	NULL	NULL	NULL	1	1	1	NULL	NULL	NULL	No	NULL	NULL	NULL	NULL	NULL	NULL	6	NULL	NULL	NULL	NULL	Blank	66	33	NULL	NULL	NULL	NULL	TrialProc	NULL	NULL	NULL	NULL	NULL	NULL	NULL	NULL	NULL	NULL	NULL	NULL	NULL	NULL	NULL	NULL	TMA+Nonenol	TrialList	NULL	NULL	NULL	NULL	NULL	NULL	6	1	6	NULL	NULL	NULL	3	NULL	2	NULL	NULL	NULL	NULL	NULL	NULL	NULL	1	2	-999999	13	2663245	0	2	364	2663609	NULL	NULL	NULL	NULL	SongTrial	NULL	SoundList	NULL	NULL	18	1	6	NULL	NULL	NULL	NULL
TMA Blocker Split Nostril Olfactometer_Pilot 2	59	1	<?xml version="1.0"?>\n<Clock xmlns:dt="urn:schemas-microsoft-com:datatypes"><Description dt:dt="string">E-Prime Primary Realtime Clock</Description><StartTime><Timestamp dt:dt="int">0</Timestamp><DateUtc dt:dt="string">2016-08-02T14:54:07Z</DateUtc></StartTime><FrequencyChanges><FrequencyChange><Frequency dt:dt="r8">2793160000</Frequency><Timestamp dt:dt="r8">8.67591638185306E+15</Timestamp><Current dt:dt="r8">0</Current><DateUtc dt:dt="string">2016-08-02T14:54:07Z</DateUtc></FrequencyChange></FrequencyChanges></Clock>\n	TMA Blocker Split Nostril Olfactometer_Pilot 2-59-1	74.912	1.0.0.1473	1	0		-999999	12035	4767597	0	q	603510	5371107	1407065467	2.0.10.242	2.0.10.242	08-02-2016	8/2/2016 2:54:07 PM	10:54:07	2.0.10.147	18	GREEN	NULL	NULL	BlockProcA	NULL	Test1	NULL	NULL	NULL	NULL	NULL	NULL	1	1	1	NULL	NULL	NULL	No	NULL	NULL	NULL	NULL	NULL	NULL	7	NULL	NULL	NULL	NULL	TMA+Nonenol	9	24	NULL	NULL	NULL	NULL	TrialProc	NULL	NULL	NULL	NULL	NULL	NULL	NULL	NULL	NULL	NULL	NULL	NULL	NULL	NULL	NULL	NULL	Blank	TrialList	NULL	NULL	NULL	NULL	NULL	NULL	5	1	7	NULL	NULL	NULL	1	NULL	NULL	NULL	NULL	NULL	NULL	NULL	NULL	NULL	NULL	NULL	NULL	NULL	NULL	NULL	NULL	NULL	NULL	NULL	1	14	14	PrepareProc	NULL	Prepare	NULL	NULL	NULL	NULL	NULL	NULL	NULL	NULL	NULL
TMA Blocker Split Nostril Olfactometer_Pilot 2	59	1	<?xml version="1.0"?>\n<Clock xmlns:dt="urn:schemas-microsoft-com:datatypes"><Description dt:dt="string">E-Prime Primary Realtime Clock</Description><StartTime><Timestamp dt:dt="int">0</Timestamp><DateUtc dt:dt="string">2016-08-02T14:54:07Z</DateUtc></StartTime><FrequencyChanges><FrequencyChange><Frequency dt:dt="r8">2793160000</Frequency><Timestamp dt:dt="r8">8.67591638185306E+15</Timestamp><Current dt:dt="r8">0</Current><DateUtc dt:dt="string">2016-08-02T14:54:07Z</DateUtc></FrequencyChange></FrequencyChanges></Clock>\n	TMA Blocker Split Nostril Olfactometer_Pilot 2-59-1	74.912	1.0.0.1473	1	0		-999999	12035	4767597	0	q	603510	5371107	1407065467	2.0.10.242	2.0.10.242	08-02-2016	8/2/2016 2:54:07 PM	10:54:07	2.0.10.147	18	GREEN	NULL	NULL	BlockProcA	NULL	Test1	NULL	NULL	NULL	NULL	NULL	NULL	1	1	1	NULL	NULL	NULL	No	NULL	NULL	NULL	NULL	NULL	NULL	7	NULL	NULL	NULL	NULL	TMA+Nonenol	9	24	NULL	NULL	NULL	NULL	TrialProc	NULL	NULL	NULL	NULL	NULL	NULL	NULL	NULL	NULL	NULL	NULL	NULL	NULL	NULL	NULL	NULL	Blank	TrialList	NULL	NULL	NULL	NULL	NULL	NULL	5	1	7	NULL	NULL	NULL	2	NULL	NULL	1	7	7	NULL	Green	417	570	NULL	NULL	NULL	NULL	NULL	NULL	NULL	NULL	NULL	1	NULL	NULL	NULL	ExperimentProc	How intense is the odor?	Experiment	NULL	NULL	NULL	NULL	NULL	NULL	NULL	NULL	?
TMA Blocker Split Nostril Olfactometer_Pilot 2	59	1	<?xml version="1.0"?>\n<Clock xmlns:dt="urn:schemas-microsoft-com:datatypes"><Description dt:dt="string">E-Prime Primary Realtime Clock</Description><StartTime><Timestamp dt:dt="int">0</Timestamp><DateUtc dt:dt="string">2016-08-02T14:54:07Z</DateUtc></StartTime><FrequencyChanges><FrequencyChange><Frequency dt:dt="r8">2793160000</Frequency><Timestamp dt:dt="r8">8.67591638185306E+15</Timestamp><Current dt:dt="r8">0</Current><DateUtc dt:dt="string">2016-08-02T14:54:07Z</DateUtc></FrequencyChange></FrequencyChanges></Clock>\n	TMA Blocker Split Nostril Olfactometer_Pilot 2-59-1	74.912	1.0.0.1473	1	0		-999999	12035	4767597	0	q	603510	5371107	1407065467	2.0.10.242	2.0.10.242	08-02-2016	8/2/2016 2:54:07 PM	10:54:07	2.0.10.147	18	GREEN	NULL	NULL	BlockProcA	NULL	Test1	NULL	NULL	NULL	NULL	NULL	NULL	1	1	1	NULL	NULL	NULL	No	NULL	NULL	NULL	NULL	NULL	NULL	7	NULL	NULL	NULL	NULL	TMA+Nonenol	9	24	NULL	NULL	NULL	NULL	TrialProc	NULL	NULL	NULL	NULL	NULL	NULL	NULL	NULL	NULL	NULL	NULL	NULL	NULL	NULL	NULL	NULL	Blank	TrialList	NULL	NULL	NULL	NULL	NULL	NULL	5	1	7	NULL	NULL	NULL	3	NULL	1	NULL	NULL	NULL	NULL	NULL	NULL	NULL	1	1	-999999	13	2709553	0	1	4822	2714375	NULL	NULL	NULL	NULL	SongTrial	NULL	SoundList	NULL	NULL	19	1	7	NULL	NULL	NULL	NULL
TMA Blocker Split Nostril Olfactometer_Pilot 2	59	1	<?xml version="1.0"?>\n<Clock xmlns:dt="urn:schemas-microsoft-com:datatypes"><Description dt:dt="string">E-Prime Primary Realtime Clock</Description><StartTime><Timestamp dt:dt="int">0</Timestamp><DateUtc dt:dt="string">2016-08-02T14:54:07Z</DateUtc></StartTime><FrequencyChanges><FrequencyChange><Frequency dt:dt="r8">2793160000</Frequency><Timestamp dt:dt="r8">8.67591638185306E+15</Timestamp><Current dt:dt="r8">0</Current><DateUtc dt:dt="string">2016-08-02T14:54:07Z</DateUtc></FrequencyChange></FrequencyChanges></Clock>\n	TMA Blocker Split Nostril Olfactometer_Pilot 2-59-1	74.912	1.0.0.1473	1	0		-999999	12035	4767597	0	q	603510	5371107	1407065467	2.0.10.242	2.0.10.242	08-02-2016	8/2/2016 2:54:07 PM	10:54:07	2.0.10.147	18	GREEN	NULL	NULL	BlockProcA	NULL	Test1	NULL	NULL	NULL	NULL	NULL	NULL	1	1	1	NULL	NULL	NULL	No	NULL	NULL	NULL	NULL	NULL	NULL	8	NULL	NULL	NULL	NULL	Blank	66	24	NULL	NULL	NULL	NULL	TrialProc	NULL	NULL	NULL	NULL	NULL	NULL	NULL	NULL	NULL	NULL	NULL	NULL	NULL	NULL	NULL	NULL	Blank	TrialList	NULL	NULL	NULL	NULL	NULL	NULL	9	1	8	NULL	NULL	NULL	1	NULL	NULL	NULL	NULL	NULL	NULL	NULL	NULL	NULL	NULL	NULL	NULL	NULL	NULL	NULL	NULL	NULL	NULL	NULL	1	15	15	PrepareProc	NULL	Prepare	NULL	NULL	NULL	NULL	NULL	NULL	NULL	NULL	NULL
TMA Blocker Split Nostril Olfactometer_Pilot 2	59	1	<?xml version="1.0"?>\n<Clock xmlns:dt="urn:schemas-microsoft-com:datatypes"><Description dt:dt="string">E-Prime Primary Realtime Clock</Description><StartTime><Timestamp dt:dt="int">0</Timestamp><DateUtc dt:dt="string">2016-08-02T14:54:07Z</DateUtc></StartTime><FrequencyChanges><FrequencyChange><Frequency dt:dt="r8">2793160000</Frequency><Timestamp dt:dt="r8">8.67591638185306E+15</Timestamp><Current dt:dt="r8">0</Current><DateUtc dt:dt="string">2016-08-02T14:54:07Z</DateUtc></FrequencyChange></FrequencyChanges></Clock>\n	TMA Blocker Split Nostril Olfactometer_Pilot 2-59-1	74.912	1.0.0.1473	1	0		-999999	12035	4767597	0	q	603510	5371107	1407065467	2.0.10.242	2.0.10.242	08-02-2016	8/2/2016 2:54:07 PM	10:54:07	2.0.10.147	18	GREEN	NULL	NULL	BlockProcA	NULL	Test1	NULL	NULL	NULL	NULL	NULL	NULL	1	1	1	NULL	NULL	NULL	No	NULL	NULL	NULL	NULL	NULL	NULL	8	NULL	NULL	NULL	NULL	Blank	66	24	NULL	NULL	NULL	NULL	TrialProc	NULL	NULL	NULL	NULL	NULL	NULL	NULL	NULL	NULL	NULL	NULL	NULL	NULL	NULL	NULL	NULL	Blank	TrialList	NULL	NULL	NULL	NULL	NULL	NULL	9	1	8	NULL	NULL	NULL	2	NULL	NULL	1	8	8	NULL	Green	566	574	NULL	NULL	NULL	NULL	NULL	NULL	NULL	NULL	NULL	1	NULL	NULL	NULL	ExperimentProc	How intense is the odor?	Experiment	NULL	NULL	NULL	NULL	NULL	NULL	NULL	NULL	?
TMA Blocker Split Nostril Olfactometer_Pilot 2	59	1	<?xml version="1.0"?>\n<Clock xmlns:dt="urn:schemas-microsoft-com:datatypes"><Description dt:dt="string">E-Prime Primary Realtime Clock</Description><StartTime><Timestamp dt:dt="int">0</Timestamp><DateUtc dt:dt="string">2016-08-02T14:54:07Z</DateUtc></StartTime><FrequencyChanges><FrequencyChange><Frequency dt:dt="r8">2793160000</Frequency><Timestamp dt:dt="r8">8.67591638185306E+15</Timestamp><Current dt:dt="r8">0</Current><DateUtc dt:dt="string">2016-08-02T14:54:07Z</DateUtc></FrequencyChange></FrequencyChanges></Clock>\n	TMA Blocker Split Nostril Olfactometer_Pilot 2-59-1	74.912	1.0.0.1473	1	0		-999999	12035	4767597	0	q	603510	5371107	1407065467	2.0.10.242	2.0.10.242	08-02-2016	8/2/2016 2:54:07 PM	10:54:07	2.0.10.147	18	GREEN	NULL	NULL	BlockProcA	NULL	Test1	NULL	NULL	NULL	NULL	NULL	NULL	1	1	1	NULL	NULL	NULL	No	NULL	NULL	NULL	NULL	NULL	NULL	8	NULL	NULL	NULL	NULL	Blank	66	24	NULL	NULL	NULL	NULL	TrialProc	NULL	NULL	NULL	NULL	NULL	NULL	NULL	NULL	NULL	NULL	NULL	NULL	NULL	NULL	NULL	NULL	Blank	TrialList	NULL	NULL	NULL	NULL	NULL	NULL	9	1	8	NULL	NULL	NULL	3	NULL	2	NULL	NULL	NULL	NULL	NULL	NULL	NULL	1	2	-999999	13	2757623	0	2	687	2758310	NULL	NULL	NULL	NULL	SongTrial	NULL	SoundList	NULL	NULL	8	1	8	NULL	NULL	NULL	NULL
TMA Blocker Split Nostril Olfactometer_Pilot 2	59	1	<?xml version="1.0"?>\n<Clock xmlns:dt="urn:schemas-microsoft-com:datatypes"><Description dt:dt="string">E-Prime Primary Realtime Clock</Description><StartTime><Timestamp dt:dt="int">0</Timestamp><DateUtc dt:dt="string">2016-08-02T14:54:07Z</DateUtc></StartTime><FrequencyChanges><FrequencyChange><Frequency dt:dt="r8">2793160000</Frequency><Timestamp dt:dt="r8">8.67591638185306E+15</Timestamp><Current dt:dt="r8">0</Current><DateUtc dt:dt="string">2016-08-02T14:54:07Z</DateUtc></FrequencyChange></FrequencyChanges></Clock>\n	TMA Blocker Split Nostril Olfactometer_Pilot 2-59-1	74.912	1.0.0.1473	1	0		-999999	12035	4767597	0	q	603510	5371107	1407065467	2.0.10.242	2.0.10.242	08-02-2016	8/2/2016 2:54:07 PM	10:54:07	2.0.10.147	18	GREEN	NULL	NULL	BlockProcA	NULL	Test1	NULL	NULL	NULL	NULL	NULL	NULL	1	1	1	NULL	NULL	NULL	No	NULL	NULL	NULL	NULL	NULL	NULL	9	NULL	NULL	NULL	NULL	TMA	3	48	NULL	NULL	NULL	NULL	TrialProc	NULL	NULL	NULL	NULL	NULL	NULL	NULL	NULL	NULL	NULL	NULL	NULL	NULL	NULL	NULL	NULL	Nonenol	TrialList	NULL	NULL	NULL	NULL	NULL	NULL	7	1	9	NULL	NULL	NULL	1	NULL	NULL	NULL	NULL	NULL	NULL	NULL	NULL	NULL	NULL	NULL	NULL	NULL	NULL	NULL	NULL	NULL	NULL	NULL	1	16	16	PrepareProc	NULL	Prepare	NULL	NULL	NULL	NULL	NULL	NULL	NULL	NULL	NULL
TMA Blocker Split Nostril Olfactometer_Pilot 2	59	1	<?xml version="1.0"?>\n<Clock xmlns:dt="urn:schemas-microsoft-com:datatypes"><Description dt:dt="string">E-Prime Primary Realtime Clock</Description><StartTime><Timestamp dt:dt="int">0</Timestamp><DateUtc dt:dt="string">2016-08-02T14:54:07Z</DateUtc></StartTime><FrequencyChanges><FrequencyChange><Frequency dt:dt="r8">2793160000</Frequency><Timestamp dt:dt="r8">8.67591638185306E+15</Timestamp><Current dt:dt="r8">0</Current><DateUtc dt:dt="string">2016-08-02T14:54:07Z</DateUtc></FrequencyChange></FrequencyChanges></Clock>\n	TMA Blocker Split Nostril Olfactometer_Pilot 2-59-1	74.912	1.0.0.1473	1	0		-999999	12035	4767597	0	q	603510	5371107	1407065467	2.0.10.242	2.0.10.242	08-02-2016	8/2/2016 2:54:07 PM	10:54:07	2.0.10.147	18	GREEN	NULL	NULL	BlockProcA	NULL	Test1	NULL	NULL	NULL	NULL	NULL	NULL	1	1	1	NULL	NULL	NULL	No	NULL	NULL	NULL	NULL	NULL	NULL	9	NULL	NULL	NULL	NULL	TMA	3	48	NULL	NULL	NULL	NULL	TrialProc	NULL	NULL	NULL	NULL	NULL	NULL	NULL	NULL	NULL	NULL	NULL	NULL	NULL	NULL	NULL	NULL	Nonenol	TrialList	NULL	NULL	NULL	NULL	NULL	NULL	7	1	9	NULL	NULL	NULL	2	NULL	NULL	1	9	9	NULL	Green	505	553	NULL	NULL	NULL	NULL	NULL	NULL	NULL	NULL	NULL	1	NULL	NULL	NULL	ExperimentProc	How intense is the odor?	Experiment	NULL	NULL	NULL	NULL	NULL	NULL	NULL	NULL	?
TMA Blocker Split Nostril Olfactometer_Pilot 2	59	1	<?xml version="1.0"?>\n<Clock xmlns:dt="urn:schemas-microsoft-com:datatypes"><Description dt:dt="string">E-Prime Primary Realtime Clock</Description><StartTime><Timestamp dt:dt="int">0</Timestamp><DateUtc dt:dt="string">2016-08-02T14:54:07Z</DateUtc></StartTime><FrequencyChanges><FrequencyChange><Frequency dt:dt="r8">2793160000</Frequency><Timestamp dt:dt="r8">8.67591638185306E+15</Timestamp><Current dt:dt="r8">0</Current><DateUtc dt:dt="string">2016-08-02T14:54:07Z</DateUtc></FrequencyChange></FrequencyChanges></Clock>\n	TMA Blocker Split Nostril Olfactometer_Pilot 2-59-1	74.912	1.0.0.1473	1	0		-999999	12035	4767597	0	q	603510	5371107	1407065467	2.0.10.242	2.0.10.242	08-02-2016	8/2/2016 2:54:07 PM	10:54:07	2.0.10.147	18	GREEN	NULL	NULL	BlockProcA	NULL	Test1	NULL	NULL	NULL	NULL	NULL	NULL	1	1	1	NULL	NULL	NULL	No	NULL	NULL	NULL	NULL	NULL	NULL	9	NULL	NULL	NULL	NULL	TMA	3	48	NULL	NULL	NULL	NULL	TrialProc	NULL	NULL	NULL	NULL	NULL	NULL	NULL	NULL	NULL	NULL	NULL	NULL	NULL	NULL	NULL	NULL	Nonenol	TrialList	NULL	NULL	NULL	NULL	NULL	NULL	7	1	9	NULL	NULL	NULL	3	NULL	1	NULL	NULL	NULL	NULL	NULL	NULL	NULL	1	1	-999999	13	2804011	0	1	1081	2805092	NULL	NULL	NULL	NULL	SongTrial	NULL	SoundList	NULL	NULL	7	1	9	NULL	NULL	NULL	NULL
TMA Blocker Split Nostril Olfactometer_Pilot 2	59	1	<?xml version="1.0"?>\n<Clock xmlns:dt="urn:schemas-microsoft-com:datatypes"><Description dt:dt="string">E-Prime Primary Realtime Clock</Description><StartTime><Timestamp dt:dt="int">0</Timestamp><DateUtc dt:dt="string">2016-08-02T14:54:07Z</DateUtc></StartTime><FrequencyChanges><FrequencyChange><Frequency dt:dt="r8">2793160000</Frequency><Timestamp dt:dt="r8">8.67591638185306E+15</Timestamp><Current dt:dt="r8">0</Current><DateUtc dt:dt="string">2016-08-02T14:54:07Z</DateUtc></FrequencyChange></FrequencyChanges></Clock>\n	TMA Blocker Split Nostril Olfactometer_Pilot 2-59-1	74.912	1.0.0.1473	1	0		-999999	12035	4767597	0	q	603510	5371107	1407065467	2.0.10.242	2.0.10.242	08-02-2016	8/2/2016 2:54:07 PM	10:54:07	2.0.10.147	18	GREEN	NULL	NULL	BlockProcA	NULL	Test1	NULL	NULL	NULL	NULL	NULL	NULL	1	1	1	NULL	NULL	NULL	No	NULL	NULL	NULL	NULL	NULL	NULL	10	NULL	NULL	NULL	NULL	Blank	66	33	NULL	NULL	NULL	NULL	TrialProc	NULL	NULL	NULL	NULL	NULL	NULL	NULL	NULL	NULL	NULL	NULL	NULL	NULL	NULL	NULL	NULL	TMA+Nonenol	TrialList	NULL	NULL	NULL	NULL	NULL	NULL	6	2	10	NULL	NULL	NULL	1	NULL	NULL	NULL	NULL	NULL	NULL	NULL	NULL	NULL	NULL	NULL	NULL	NULL	NULL	NULL	NULL	NULL	NULL	NULL	1	17	17	PrepareProc	NULL	Prepare	NULL	NULL	NULL	NULL	NULL	NULL	NULL	NULL	NULL
TMA Blocker Split Nostril Olfactometer_Pilot 2	59	1	<?xml version="1.0"?>\n<Clock xmlns:dt="urn:schemas-microsoft-com:datatypes"><Description dt:dt="string">E-Prime Primary Realtime Clock</Description><StartTime><Timestamp dt:dt="int">0</Timestamp><DateUtc dt:dt="string">2016-08-02T14:54:07Z</DateUtc></StartTime><FrequencyChanges><FrequencyChange><Frequency dt:dt="r8">2793160000</Frequency><Timestamp dt:dt="r8">8.67591638185306E+15</Timestamp><Current dt:dt="r8">0</Current><DateUtc dt:dt="string">2016-08-02T14:54:07Z</DateUtc></FrequencyChange></FrequencyChanges></Clock>\n	TMA Blocker Split Nostril Olfactometer_Pilot 2-59-1	74.912	1.0.0.1473	1	0		-999999	12035	4767597	0	q	603510	5371107	1407065467	2.0.10.242	2.0.10.242	08-02-2016	8/2/2016 2:54:07 PM	10:54:07	2.0.10.147	18	GREEN	NULL	NULL	BlockProcA	NULL	Test1	NULL	NULL	NULL	NULL	NULL	NULL	1	1	1	NULL	NULL	NULL	No	NULL	NULL	NULL	NULL	NULL	NULL	10	NULL	NULL	NULL	NULL	Blank	66	33	NULL	NULL	NULL	NULL	TrialProc	NULL	NULL	NULL	NULL	NULL	NULL	NULL	NULL	NULL	NULL	NULL	NULL	NULL	NULL	NULL	NULL	TMA+Nonenol	TrialList	NULL	NULL	NULL	NULL	NULL	NULL	6	2	10	NULL	NULL	NULL	2	NULL	NULL	1	10	10	NULL	Green	560	494	NULL	NULL	NULL	NULL	NULL	NULL	NULL	NULL	NULL	1	NULL	NULL	NULL	ExperimentProc	How intense is the odor?	Experiment	NULL	NULL	NULL	NULL	NULL	NULL	NULL	NULL	?
TMA Blocker Split Nostril Olfactometer_Pilot 2	59	1	<?xml version="1.0"?>\n<Clock xmlns:dt="urn:schemas-microsoft-com:datatypes"><Description dt:dt="string">E-Prime Primary Realtime Clock</Description><StartTime><Timestamp dt:dt="int">0</Timestamp><DateUtc dt:dt="string">2016-08-02T14:54:07Z</DateUtc></StartTime><FrequencyChanges><FrequencyChange><Frequency dt:dt="r8">2793160000</Frequency><Timestamp dt:dt="r8">8.67591638185306E+15</Timestamp><Current dt:dt="r8">0</Current><DateUtc dt:dt="string">2016-08-02T14:54:07Z</DateUtc></FrequencyChange></FrequencyChanges></Clock>\n	TMA Blocker Split Nostril Olfactometer_Pilot 2-59-1	74.912	1.0.0.1473	1	0		-999999	12035	4767597	0	q	603510	5371107	1407065467	2.0.10.242	2.0.10.242	08-02-2016	8/2/2016 2:54:07 PM	10:54:07	2.0.10.147	18	GREEN	NULL	NULL	BlockProcA	NULL	Test1	NULL	NULL	NULL	NULL	NULL	NULL	1	1	1	NULL	NULL	NULL	No	NULL	NULL	NULL	NULL	NULL	NULL	10	NULL	NULL	NULL	NULL	Blank	66	33	NULL	NULL	NULL	NULL	TrialProc	NULL	NULL	NULL	NULL	NULL	NULL	NULL	NULL	NULL	NULL	NULL	NULL	NULL	NULL	NULL	NULL	TMA+Nonenol	TrialList	NULL	NULL	NULL	NULL	NULL	NULL	6	2	10	NULL	NULL	NULL	3	NULL	2	NULL	NULL	NULL	NULL	NULL	NULL	NULL	1	2	-999999	13	2852268	0	2	815	2853083	NULL	NULL	NULL	NULL	SongTrial	NULL	SoundList	NULL	NULL	17	1	10	NULL	NULL	NULL	NULL
TMA Blocker Split Nostril Olfactometer_Pilot 2	59	1	<?xml version="1.0"?>\n<Clock xmlns:dt="urn:schemas-microsoft-com:datatypes"><Description dt:dt="string">E-Prime Primary Realtime Clock</Description><StartTime><Timestamp dt:dt="int">0</Timestamp><DateUtc dt:dt="string">2016-08-02T14:54:07Z</DateUtc></StartTime><FrequencyChanges><FrequencyChange><Frequency dt:dt="r8">2793160000</Frequency><Timestamp dt:dt="r8">8.67591638185306E+15</Timestamp><Current dt:dt="r8">0</Current><DateUtc dt:dt="string">2016-08-02T14:54:07Z</DateUtc></FrequencyChange></FrequencyChanges></Clock>\n	TMA Blocker Split Nostril Olfactometer_Pilot 2-59-1	74.912	1.0.0.1473	1	0		-999999	12035	4767597	0	q	603510	5371107	1407065467	2.0.10.242	2.0.10.242	08-02-2016	8/2/2016 2:54:07 PM	10:54:07	2.0.10.147	18	GREEN	NULL	NULL	BlockProcA	NULL	Test1	NULL	NULL	NULL	NULL	NULL	NULL	1	1	1	NULL	NULL	NULL	No	NULL	NULL	NULL	NULL	NULL	NULL	11	NULL	NULL	NULL	NULL	Nonenol	72	24	NULL	NULL	NULL	NULL	TrialProc	NULL	NULL	NULL	NULL	NULL	NULL	NULL	NULL	NULL	NULL	NULL	NULL	NULL	NULL	NULL	NULL	Blank	TrialList	NULL	NULL	NULL	NULL	NULL	NULL	3	2	11	NULL	NULL	NULL	1	NULL	NULL	NULL	NULL	NULL	NULL	NULL	NULL	NULL	NULL	NULL	NULL	NULL	NULL	NULL	NULL	NULL	NULL	NULL	1	18	18	PrepareProc	NULL	Prepare	NULL	NULL	NULL	NULL	NULL	NULL	NULL	NULL	NULL
TMA Blocker Split Nostril Olfactometer_Pilot 2	59	1	<?xml version="1.0"?>\n<Clock xmlns:dt="urn:schemas-microsoft-com:datatypes"><Description dt:dt="string">E-Prime Primary Realtime Clock</Description><StartTime><Timestamp dt:dt="int">0</Timestamp><DateUtc dt:dt="string">2016-08-02T14:54:07Z</DateUtc></StartTime><FrequencyChanges><FrequencyChange><Frequency dt:dt="r8">2793160000</Frequency><Timestamp dt:dt="r8">8.67591638185306E+15</Timestamp><Current dt:dt="r8">0</Current><DateUtc dt:dt="string">2016-08-02T14:54:07Z</DateUtc></FrequencyChange></FrequencyChanges></Clock>\n	TMA Blocker Split Nostril Olfactometer_Pilot 2-59-1	74.912	1.0.0.1473	1	0		-999999	12035	4767597	0	q	603510	5371107	1407065467	2.0.10.242	2.0.10.242	08-02-2016	8/2/2016 2:54:07 PM	10:54:07	2.0.10.147	18	GREEN	NULL	NULL	BlockProcA	NULL	Test1	NULL	NULL	NULL	NULL	NULL	NULL	1	1	1	NULL	NULL	NULL	No	NULL	NULL	NULL	NULL	NULL	NULL	11	NULL	NULL	NULL	NULL	Nonenol	72	24	NULL	NULL	NULL	NULL	TrialProc	NULL	NULL	NULL	NULL	NULL	NULL	NULL	NULL	NULL	NULL	NULL	NULL	NULL	NULL	NULL	NULL	Blank	TrialList	NULL	NULL	NULL	NULL	NULL	NULL	3	2	11	NULL	NULL	NULL	2	NULL	NULL	1	11	11	NULL	Green	426	571	NULL	NULL	NULL	NULL	NULL	NULL	NULL	NULL	NULL	1	NULL	NULL	NULL	ExperimentProc	How intense is the odor?	Experiment	NULL	NULL	NULL	NULL	NULL	NULL	NULL	NULL	?
TMA Blocker Split Nostril Olfactometer_Pilot 2	59	1	<?xml version="1.0"?>\n<Clock xmlns:dt="urn:schemas-microsoft-com:datatypes"><Description dt:dt="string">E-Prime Primary Realtime Clock</Description><StartTime><Timestamp dt:dt="int">0</Timestamp><DateUtc dt:dt="string">2016-08-02T14:54:07Z</DateUtc></StartTime><FrequencyChanges><FrequencyChange><Frequency dt:dt="r8">2793160000</Frequency><Timestamp dt:dt="r8">8.67591638185306E+15</Timestamp><Current dt:dt="r8">0</Current><DateUtc dt:dt="string">2016-08-02T14:54:07Z</DateUtc></FrequencyChange></FrequencyChanges></Clock>\n	TMA Blocker Split Nostril Olfactometer_Pilot 2-59-1	74.912	1.0.0.1473	1	0		-999999	12035	4767597	0	q	603510	5371107	1407065467	2.0.10.242	2.0.10.242	08-02-2016	8/2/2016 2:54:07 PM	10:54:07	2.0.10.147	18	GREEN	NULL	NULL	BlockProcA	NULL	Test1	NULL	NULL	NULL	NULL	NULL	NULL	1	1	1	NULL	NULL	NULL	No	NULL	NULL	NULL	NULL	NULL	NULL	11	NULL	NULL	NULL	NULL	Nonenol	72	24	NULL	NULL	NULL	NULL	TrialProc	NULL	NULL	NULL	NULL	NULL	NULL	NULL	NULL	NULL	NULL	NULL	NULL	NULL	NULL	NULL	NULL	Blank	TrialList	NULL	NULL	NULL	NULL	NULL	NULL	3	2	11	NULL	NULL	NULL	3	NULL	1	NULL	NULL	NULL	NULL	NULL	NULL	NULL	1	1	-999999	13	2894585	0	1	337	2894922	NULL	NULL	NULL	NULL	SongTrial	NULL	SoundList	NULL	NULL	13	1	11	NULL	NULL	NULL	NULL
TMA Blocker Split Nostril Olfactometer_Pilot 2	59	1	<?xml version="1.0"?>\n<Clock xmlns:dt="urn:schemas-microsoft-com:datatypes"><Description dt:dt="string">E-Prime Primary Realtime Clock</Description><StartTime><Timestamp dt:dt="int">0</Timestamp><DateUtc dt:dt="string">2016-08-02T14:54:07Z</DateUtc></StartTime><FrequencyChanges><FrequencyChange><Frequency dt:dt="r8">2793160000</Frequency><Timestamp dt:dt="r8">8.67591638185306E+15</Timestamp><Current dt:dt="r8">0</Current><DateUtc dt:dt="string">2016-08-02T14:54:07Z</DateUtc></FrequencyChange></FrequencyChanges></Clock>\n	TMA Blocker Split Nostril Olfactometer_Pilot 2-59-1	74.912	1.0.0.1473	1	0		-999999	12035	4767597	0	q	603510	5371107	1407065467	2.0.10.242	2.0.10.242	08-02-2016	8/2/2016 2:54:07 PM	10:54:07	2.0.10.147	18	GREEN	NULL	NULL	BlockProcA	NULL	Test1	NULL	NULL	NULL	NULL	NULL	NULL	1	1	1	NULL	NULL	NULL	No	NULL	NULL	NULL	NULL	NULL	NULL	12	NULL	NULL	NULL	NULL	TMA+Nonenol	9	24	NULL	NULL	NULL	NULL	TrialProc	NULL	NULL	NULL	NULL	NULL	NULL	NULL	NULL	NULL	NULL	NULL	NULL	NULL	NULL	NULL	NULL	Blank	TrialList	NULL	NULL	NULL	NULL	NULL	NULL	5	2	12	NULL	NULL	NULL	1	NULL	NULL	NULL	NULL	NULL	NULL	NULL	NULL	NULL	NULL	NULL	NULL	NULL	NULL	NULL	NULL	NULL	NULL	NULL	1	19	19	PrepareProc	NULL	Prepare	NULL	NULL	NULL	NULL	NULL	NULL	NULL	NULL	NULL
TMA Blocker Split Nostril Olfactometer_Pilot 2	59	1	<?xml version="1.0"?>\n<Clock xmlns:dt="urn:schemas-microsoft-com:datatypes"><Description dt:dt="string">E-Prime Primary Realtime Clock</Description><StartTime><Timestamp dt:dt="int">0</Timestamp><DateUtc dt:dt="string">2016-08-02T14:54:07Z</DateUtc></StartTime><FrequencyChanges><FrequencyChange><Frequency dt:dt="r8">2793160000</Frequency><Timestamp dt:dt="r8">8.67591638185306E+15</Timestamp><Current dt:dt="r8">0</Current><DateUtc dt:dt="string">2016-08-02T14:54:07Z</DateUtc></FrequencyChange></FrequencyChanges></Clock>\n	TMA Blocker Split Nostril Olfactometer_Pilot 2-59-1	74.912	1.0.0.1473	1	0		-999999	12035	4767597	0	q	603510	5371107	1407065467	2.0.10.242	2.0.10.242	08-02-2016	8/2/2016 2:54:07 PM	10:54:07	2.0.10.147	18	GREEN	NULL	NULL	BlockProcA	NULL	Test1	NULL	NULL	NULL	NULL	NULL	NULL	1	1	1	NULL	NULL	NULL	No	NULL	NULL	NULL	NULL	NULL	NULL	12	NULL	NULL	NULL	NULL	TMA+Nonenol	9	24	NULL	NULL	NULL	NULL	TrialProc	NULL	NULL	NULL	NULL	NULL	NULL	NULL	NULL	NULL	NULL	NULL	NULL	NULL	NULL	NULL	NULL	Blank	TrialList	NULL	NULL	NULL	NULL	NULL	NULL	5	2	12	NULL	NULL	NULL	2	NULL	NULL	1	12	12	NULL	Green	471	577	NULL	NULL	NULL	NULL	NULL	NULL	NULL	NULL	NULL	1	NULL	NULL	NULL	ExperimentProc	How intense is the odor?	Experiment	NULL	NULL	NULL	NULL	NULL	NULL	NULL	NULL	?
TMA Blocker Split Nostril Olfactometer_Pilot 2	59	1	<?xml version="1.0"?>\n<Clock xmlns:dt="urn:schemas-microsoft-com:datatypes"><Description dt:dt="string">E-Prime Primary Realtime Clock</Description><StartTime><Timestamp dt:dt="int">0</Timestamp><DateUtc dt:dt="string">2016-08-02T14:54:07Z</DateUtc></StartTime><FrequencyChanges><FrequencyChange><Frequency dt:dt="r8">2793160000</Frequency><Timestamp dt:dt="r8">8.67591638185306E+15</Timestamp><Current dt:dt="r8">0</Current><DateUtc dt:dt="string">2016-08-02T14:54:07Z</DateUtc></FrequencyChange></FrequencyChanges></Clock>\n	TMA Blocker Split Nostril Olfactometer_Pilot 2-59-1	74.912	1.0.0.1473	1	0		-999999	12035	4767597	0	q	603510	5371107	1407065467	2.0.10.242	2.0.10.242	08-02-2016	8/2/2016 2:54:07 PM	10:54:07	2.0.10.147	18	GREEN	NULL	NULL	BlockProcA	NULL	Test1	NULL	NULL	NULL	NULL	NULL	NULL	1	1	1	NULL	NULL	NULL	No	NULL	NULL	NULL	NULL	NULL	NULL	12	NULL	NULL	NULL	NULL	TMA+Nonenol	9	24	NULL	NULL	NULL	NULL	TrialProc	NULL	NULL	NULL	NULL	NULL	NULL	NULL	NULL	NULL	NULL	NULL	NULL	NULL	NULL	NULL	NULL	Blank	TrialList	NULL	NULL	NULL	NULL	NULL	NULL	5	2	12	NULL	NULL	NULL	3	NULL	2	NULL	NULL	NULL	NULL	NULL	NULL	NULL	1	2	-999999	13	2940533	0	2	739	2941272	NULL	NULL	NULL	NULL	SongTrial	NULL	SoundList	NULL	NULL	15	1	12	NULL	NULL	NULL	NULL
TMA Blocker Split Nostril Olfactometer_Pilot 2	59	1	<?xml version="1.0"?>\n<Clock xmlns:dt="urn:schemas-microsoft-com:datatypes"><Description dt:dt="string">E-Prime Primary Realtime Clock</Description><StartTime><Timestamp dt:dt="int">0</Timestamp><DateUtc dt:dt="string">2016-08-02T14:54:07Z</DateUtc></StartTime><FrequencyChanges><FrequencyChange><Frequency dt:dt="r8">2793160000</Frequency><Timestamp dt:dt="r8">8.67591638185306E+15</Timestamp><Current dt:dt="r8">0</Current><DateUtc dt:dt="string">2016-08-02T14:54:07Z</DateUtc></FrequencyChange></FrequencyChanges></Clock>\n	TMA Blocker Split Nostril Olfactometer_Pilot 2-59-1	74.912	1.0.0.1473	1	0		-999999	12035	4767597	0	q	603510	5371107	1407065467	2.0.10.242	2.0.10.242	08-02-2016	8/2/2016 2:54:07 PM	10:54:07	2.0.10.147	18	GREEN	NULL	NULL	BlockProcA	NULL	Test1	NULL	NULL	NULL	NULL	NULL	NULL	1	1	1	NULL	NULL	NULL	No	NULL	NULL	NULL	NULL	NULL	NULL	13	NULL	NULL	NULL	NULL	Blank	66	9	NULL	NULL	NULL	NULL	TrialProc	NULL	NULL	NULL	NULL	NULL	NULL	NULL	NULL	NULL	NULL	NULL	NULL	NULL	NULL	NULL	NULL	TMA	TrialList	NULL	NULL	NULL	NULL	NULL	NULL	2	2	13	NULL	NULL	NULL	1	NULL	NULL	NULL	NULL	NULL	NULL	NULL	NULL	NULL	NULL	NULL	NULL	NULL	NULL	NULL	NULL	NULL	NULL	NULL	1	20	20	PrepareProc	NULL	Prepare	NULL	NULL	NULL	NULL	NULL	NULL	NULL	NULL	NULL
TMA Blocker Split Nostril Olfactometer_Pilot 2	59	1	<?xml version="1.0"?>\n<Clock xmlns:dt="urn:schemas-microsoft-com:datatypes"><Description dt:dt="string">E-Prime Primary Realtime Clock</Description><StartTime><Timestamp dt:dt="int">0</Timestamp><DateUtc dt:dt="string">2016-08-02T14:54:07Z</DateUtc></StartTime><FrequencyChanges><FrequencyChange><Frequency dt:dt="r8">2793160000</Frequency><Timestamp dt:dt="r8">8.67591638185306E+15</Timestamp><Current dt:dt="r8">0</Current><DateUtc dt:dt="string">2016-08-02T14:54:07Z</DateUtc></FrequencyChange></FrequencyChanges></Clock>\n	TMA Blocker Split Nostril Olfactometer_Pilot 2-59-1	74.912	1.0.0.1473	1	0		-999999	12035	4767597	0	q	603510	5371107	1407065467	2.0.10.242	2.0.10.242	08-02-2016	8/2/2016 2:54:07 PM	10:54:07	2.0.10.147	18	GREEN	NULL	NULL	BlockProcA	NULL	Test1	NULL	NULL	NULL	NULL	NULL	NULL	1	1	1	NULL	NULL	NULL	No	NULL	NULL	NULL	NULL	NULL	NULL	13	NULL	NULL	NULL	NULL	Blank	66	9	NULL	NULL	NULL	NULL	TrialProc	NULL	NULL	NULL	NULL	NULL	NULL	NULL	NULL	NULL	NULL	NULL	NULL	NULL	NULL	NULL	NULL	TMA	TrialList	NULL	NULL	NULL	NULL	NULL	NULL	2	2	13	NULL	NULL	NULL	2	NULL	NULL	1	13	13	NULL	Green	567	498	NULL	NULL	NULL	NULL	NULL	NULL	NULL	NULL	NULL	1	NULL	NULL	NULL	ExperimentProc	How intense is the odor?	Experiment	NULL	NULL	NULL	NULL	NULL	NULL	NULL	NULL	?
TMA Blocker Split Nostril Olfactometer_Pilot 2	59	1	<?xml version="1.0"?>\n<Clock xmlns:dt="urn:schemas-microsoft-com:datatypes"><Description dt:dt="string">E-Prime Primary Realtime Clock</Description><StartTime><Timestamp dt:dt="int">0</Timestamp><DateUtc dt:dt="string">2016-08-02T14:54:07Z</DateUtc></StartTime><FrequencyChanges><FrequencyChange><Frequency dt:dt="r8">2793160000</Frequency><Timestamp dt:dt="r8">8.67591638185306E+15</Timestamp><Current dt:dt="r8">0</Current><DateUtc dt:dt="string">2016-08-02T14:54:07Z</DateUtc></FrequencyChange></FrequencyChanges></Clock>\n	TMA Blocker Split Nostril Olfactometer_Pilot 2-59-1	74.912	1.0.0.1473	1	0		-999999	12035	4767597	0	q	603510	5371107	1407065467	2.0.10.242	2.0.10.242	08-02-2016	8/2/2016 2:54:07 PM	10:54:07	2.0.10.147	18	GREEN	NULL	NULL	BlockProcA	NULL	Test1	NULL	NULL	NULL	NULL	NULL	NULL	1	1	1	NULL	NULL	NULL	No	NULL	NULL	NULL	NULL	NULL	NULL	13	NULL	NULL	NULL	NULL	Blank	66	9	NULL	NULL	NULL	NULL	TrialProc	NULL	NULL	NULL	NULL	NULL	NULL	NULL	NULL	NULL	NULL	NULL	NULL	NULL	NULL	NULL	NULL	TMA	TrialList	NULL	NULL	NULL	NULL	NULL	NULL	2	2	13	NULL	NULL	NULL	3	NULL	1	NULL	NULL	NULL	NULL	NULL	NULL	NULL	1	1	-999999	13	2982956	0	1	7115	2990071	NULL	NULL	NULL	NULL	SongTrial	NULL	SoundList	NULL	NULL	3	1	13	NULL	NULL	NULL	NULL
TMA Blocker Split Nostril Olfactometer_Pilot 2	59	1	<?xml version="1.0"?>\n<Clock xmlns:dt="urn:schemas-microsoft-com:datatypes"><Description dt:dt="string">E-Prime Primary Realtime Clock</Description><StartTime><Timestamp dt:dt="int">0</Timestamp><DateUtc dt:dt="string">2016-08-02T14:54:07Z</DateUtc></StartTime><FrequencyChanges><FrequencyChange><Frequency dt:dt="r8">2793160000</Frequency><Timestamp dt:dt="r8">8.67591638185306E+15</Timestamp><Current dt:dt="r8">0</Current><DateUtc dt:dt="string">2016-08-02T14:54:07Z</DateUtc></FrequencyChange></FrequencyChanges></Clock>\n	TMA Blocker Split Nostril Olfactometer_Pilot 2-59-1	74.912	1.0.0.1473	1	0		-999999	12035	4767597	0	q	603510	5371107	1407065467	2.0.10.242	2.0.10.242	08-02-2016	8/2/2016 2:54:07 PM	10:54:07	2.0.10.147	18	GREEN	NULL	NULL	BlockProcA	NULL	Test1	NULL	NULL	NULL	NULL	NULL	NULL	1	1	1	NULL	NULL	NULL	No	NULL	NULL	NULL	NULL	NULL	NULL	14	NULL	NULL	NULL	NULL	TMA	3	48	NULL	NULL	NULL	NULL	TrialProc	NULL	NULL	NULL	NULL	NULL	NULL	NULL	NULL	NULL	NULL	NULL	NULL	NULL	NULL	NULL	NULL	Nonenol	TrialList	NULL	NULL	NULL	NULL	NULL	NULL	7	2	14	NULL	NULL	NULL	1	NULL	NULL	NULL	NULL	NULL	NULL	NULL	NULL	NULL	NULL	NULL	NULL	NULL	NULL	NULL	NULL	NULL	NULL	NULL	1	21	21	PrepareProc	NULL	Prepare	NULL	NULL	NULL	NULL	NULL	NULL	NULL	NULL	NULL
TMA Blocker Split Nostril Olfactometer_Pilot 2	59	1	<?xml version="1.0"?>\n<Clock xmlns:dt="urn:schemas-microsoft-com:datatypes"><Description dt:dt="string">E-Prime Primary Realtime Clock</Description><StartTime><Timestamp dt:dt="int">0</Timestamp><DateUtc dt:dt="string">2016-08-02T14:54:07Z</DateUtc></StartTime><FrequencyChanges><FrequencyChange><Frequency dt:dt="r8">2793160000</Frequency><Timestamp dt:dt="r8">8.67591638185306E+15</Timestamp><Current dt:dt="r8">0</Current><DateUtc dt:dt="string">2016-08-02T14:54:07Z</DateUtc></FrequencyChange></FrequencyChanges></Clock>\n	TMA Blocker Split Nostril Olfactometer_Pilot 2-59-1	74.912	1.0.0.1473	1	0		-999999	12035	4767597	0	q	603510	5371107	1407065467	2.0.10.242	2.0.10.242	08-02-2016	8/2/2016 2:54:07 PM	10:54:07	2.0.10.147	18	GREEN	NULL	NULL	BlockProcA	NULL	Test1	NULL	NULL	NULL	NULL	NULL	NULL	1	1	1	NULL	NULL	NULL	No	NULL	NULL	NULL	NULL	NULL	NULL	14	NULL	NULL	NULL	NULL	TMA	3	48	NULL	NULL	NULL	NULL	TrialProc	NULL	NULL	NULL	NULL	NULL	NULL	NULL	NULL	NULL	NULL	NULL	NULL	NULL	NULL	NULL	NULL	Nonenol	TrialList	NULL	NULL	NULL	NULL	NULL	NULL	7	2	14	NULL	NULL	NULL	2	NULL	NULL	1	14	14	NULL	Green	496	496	NULL	NULL	NULL	NULL	NULL	NULL	NULL	NULL	NULL	1	NULL	NULL	NULL	ExperimentProc	How intense is the odor?	Experiment	NULL	NULL	NULL	NULL	NULL	NULL	NULL	NULL	?
TMA Blocker Split Nostril Olfactometer_Pilot 2	59	1	<?xml version="1.0"?>\n<Clock xmlns:dt="urn:schemas-microsoft-com:datatypes"><Description dt:dt="string">E-Prime Primary Realtime Clock</Description><StartTime><Timestamp dt:dt="int">0</Timestamp><DateUtc dt:dt="string">2016-08-02T14:54:07Z</DateUtc></StartTime><FrequencyChanges><FrequencyChange><Frequency dt:dt="r8">2793160000</Frequency><Timestamp dt:dt="r8">8.67591638185306E+15</Timestamp><Current dt:dt="r8">0</Current><DateUtc dt:dt="string">2016-08-02T14:54:07Z</DateUtc></FrequencyChange></FrequencyChanges></Clock>\n	TMA Blocker Split Nostril Olfactometer_Pilot 2-59-1	74.912	1.0.0.1473	1	0		-999999	12035	4767597	0	q	603510	5371107	1407065467	2.0.10.242	2.0.10.242	08-02-2016	8/2/2016 2:54:07 PM	10:54:07	2.0.10.147	18	GREEN	NULL	NULL	BlockProcA	NULL	Test1	NULL	NULL	NULL	NULL	NULL	NULL	1	1	1	NULL	NULL	NULL	No	NULL	NULL	NULL	NULL	NULL	NULL	14	NULL	NULL	NULL	NULL	TMA	3	48	NULL	NULL	NULL	NULL	TrialProc	NULL	NULL	NULL	NULL	NULL	NULL	NULL	NULL	NULL	NULL	NULL	NULL	NULL	NULL	NULL	NULL	Nonenol	TrialList	NULL	NULL	NULL	NULL	NULL	NULL	7	2	14	NULL	NULL	NULL	3	NULL	1	NULL	NULL	NULL	NULL	NULL	NULL	NULL	1	1	-999999	13	3037007	0	1	1310	3038317	NULL	NULL	NULL	NULL	SongTrial	NULL	SoundList	NULL	NULL	20	1	14	NULL	NULL	NULL	NULL
TMA Blocker Split Nostril Olfactometer_Pilot 2	59	1	<?xml version="1.0"?>\n<Clock xmlns:dt="urn:schemas-microsoft-com:datatypes"><Description dt:dt="string">E-Prime Primary Realtime Clock</Description><StartTime><Timestamp dt:dt="int">0</Timestamp><DateUtc dt:dt="string">2016-08-02T14:54:07Z</DateUtc></StartTime><FrequencyChanges><FrequencyChange><Frequency dt:dt="r8">2793160000</Frequency><Timestamp dt:dt="r8">8.67591638185306E+15</Timestamp><Current dt:dt="r8">0</Current><DateUtc dt:dt="string">2016-08-02T14:54:07Z</DateUtc></FrequencyChange></FrequencyChanges></Clock>\n	TMA Blocker Split Nostril Olfactometer_Pilot 2-59-1	74.912	1.0.0.1473	1	0		-999999	12035	4767597	0	q	603510	5371107	1407065467	2.0.10.242	2.0.10.242	08-02-2016	8/2/2016 2:54:07 PM	10:54:07	2.0.10.147	18	GREEN	NULL	NULL	BlockProcA	NULL	Test1	NULL	NULL	NULL	NULL	NULL	NULL	1	1	1	NULL	NULL	NULL	No	NULL	NULL	NULL	NULL	NULL	NULL	15	NULL	NULL	NULL	NULL	TMA	3	24	NULL	NULL	NULL	NULL	TrialProc	NULL	NULL	NULL	NULL	NULL	NULL	NULL	NULL	NULL	NULL	NULL	NULL	NULL	NULL	NULL	NULL	Blank	TrialList	NULL	NULL	NULL	NULL	NULL	NULL	1	2	15	NULL	NULL	NULL	1	NULL	NULL	NULL	NULL	NULL	NULL	NULL	NULL	NULL	NULL	NULL	NULL	NULL	NULL	NULL	NULL	NULL	NULL	NULL	1	22	22	PrepareProc	NULL	Prepare	NULL	NULL	NULL	NULL	NULL	NULL	NULL	NULL	NULL
TMA Blocker Split Nostril Olfactometer_Pilot 2	59	1	<?xml version="1.0"?>\n<Clock xmlns:dt="urn:schemas-microsoft-com:datatypes"><Description dt:dt="string">E-Prime Primary Realtime Clock</Description><StartTime><Timestamp dt:dt="int">0</Timestamp><DateUtc dt:dt="string">2016-08-02T14:54:07Z</DateUtc></StartTime><FrequencyChanges><FrequencyChange><Frequency dt:dt="r8">2793160000</Frequency><Timestamp dt:dt="r8">8.67591638185306E+15</Timestamp><Current dt:dt="r8">0</Current><DateUtc dt:dt="string">2016-08-02T14:54:07Z</DateUtc></FrequencyChange></FrequencyChanges></Clock>\n	TMA Blocker Split Nostril Olfactometer_Pilot 2-59-1	74.912	1.0.0.1473	1	0		-999999	12035	4767597	0	q	603510	5371107	1407065467	2.0.10.242	2.0.10.242	08-02-2016	8/2/2016 2:54:07 PM	10:54:07	2.0.10.147	18	GREEN	NULL	NULL	BlockProcA	NULL	Test1	NULL	NULL	NULL	NULL	NULL	NULL	1	1	1	NULL	NULL	NULL	No	NULL	NULL	NULL	NULL	NULL	NULL	15	NULL	NULL	NULL	NULL	TMA	3	24	NULL	NULL	NULL	NULL	TrialProc	NULL	NULL	NULL	NULL	NULL	NULL	NULL	NULL	NULL	NULL	NULL	NULL	NULL	NULL	NULL	NULL	Blank	TrialList	NULL	NULL	NULL	NULL	NULL	NULL	1	2	15	NULL	NULL	NULL	2	NULL	NULL	1	15	15	NULL	Green	546	524	NULL	NULL	NULL	NULL	NULL	NULL	NULL	NULL	NULL	1	NULL	NULL	NULL	ExperimentProc	How intense is the odor?	Experiment	NULL	NULL	NULL	NULL	NULL	NULL	NULL	NULL	?
TMA Blocker Split Nostril Olfactometer_Pilot 2	59	1	<?xml version="1.0"?>\n<Clock xmlns:dt="urn:schemas-microsoft-com:datatypes"><Description dt:dt="string">E-Prime Primary Realtime Clock</Description><StartTime><Timestamp dt:dt="int">0</Timestamp><DateUtc dt:dt="string">2016-08-02T14:54:07Z</DateUtc></StartTime><FrequencyChanges><FrequencyChange><Frequency dt:dt="r8">2793160000</Frequency><Timestamp dt:dt="r8">8.67591638185306E+15</Timestamp><Current dt:dt="r8">0</Current><DateUtc dt:dt="string">2016-08-02T14:54:07Z</DateUtc></FrequencyChange></FrequencyChanges></Clock>\n	TMA Blocker Split Nostril Olfactometer_Pilot 2-59-1	74.912	1.0.0.1473	1	0		-999999	12035	4767597	0	q	603510	5371107	1407065467	2.0.10.242	2.0.10.242	08-02-2016	8/2/2016 2:54:07 PM	10:54:07	2.0.10.147	18	GREEN	NULL	NULL	BlockProcA	NULL	Test1	NULL	NULL	NULL	NULL	NULL	NULL	1	1	1	NULL	NULL	NULL	No	NULL	NULL	NULL	NULL	NULL	NULL	15	NULL	NULL	NULL	NULL	TMA	3	24	NULL	NULL	NULL	NULL	TrialProc	NULL	NULL	NULL	NULL	NULL	NULL	NULL	NULL	NULL	NULL	NULL	NULL	NULL	NULL	NULL	NULL	Blank	TrialList	NULL	NULL	NULL	NULL	NULL	NULL	1	2	15	NULL	NULL	NULL	3	NULL	1	NULL	NULL	NULL	NULL	NULL	NULL	NULL	1	1	-999999	13	3086171	0	1	1985	3088156	NULL	NULL	NULL	NULL	SongTrial	NULL	SoundList	NULL	NULL	4	1	15	NULL	NULL	NULL	NULL
TMA Blocker Split Nostril Olfactometer_Pilot 2	59	1	<?xml version="1.0"?>\n<Clock xmlns:dt="urn:schemas-microsoft-com:datatypes"><Description dt:dt="string">E-Prime Primary Realtime Clock</Description><StartTime><Timestamp dt:dt="int">0</Timestamp><DateUtc dt:dt="string">2016-08-02T14:54:07Z</DateUtc></StartTime><FrequencyChanges><FrequencyChange><Frequency dt:dt="r8">2793160000</Frequency><Timestamp dt:dt="r8">8.67591638185306E+15</Timestamp><Current dt:dt="r8">0</Current><DateUtc dt:dt="string">2016-08-02T14:54:07Z</DateUtc></FrequencyChange></FrequencyChanges></Clock>\n	TMA Blocker Split Nostril Olfactometer_Pilot 2-59-1	74.912	1.0.0.1473	1	0		-999999	12035	4767597	0	q	603510	5371107	1407065467	2.0.10.242	2.0.10.242	08-02-2016	8/2/2016 2:54:07 PM	10:54:07	2.0.10.147	18	GREEN	NULL	NULL	BlockProcA	NULL	Test1	NULL	NULL	NULL	NULL	NULL	NULL	1	1	1	NULL	NULL	NULL	No	NULL	NULL	NULL	NULL	NULL	NULL	16	NULL	NULL	NULL	NULL	Blank	66	48	NULL	NULL	NULL	NULL	TrialProc	NULL	NULL	NULL	NULL	NULL	NULL	NULL	NULL	NULL	NULL	NULL	NULL	NULL	NULL	NULL	NULL	Nonenol	TrialList	NULL	NULL	NULL	NULL	NULL	NULL	4	2	16	NULL	NULL	NULL	1	NULL	NULL	NULL	NULL	NULL	NULL	NULL	NULL	NULL	NULL	NULL	NULL	NULL	NULL	NULL	NULL	NULL	NULL	NULL	1	23	23	PrepareProc	NULL	Prepare	NULL	NULL	NULL	NULL	NULL	NULL	NULL	NULL	NULL
TMA Blocker Split Nostril Olfactometer_Pilot 2	59	1	<?xml version="1.0"?>\n<Clock xmlns:dt="urn:schemas-microsoft-com:datatypes"><Description dt:dt="string">E-Prime Primary Realtime Clock</Description><StartTime><Timestamp dt:dt="int">0</Timestamp><DateUtc dt:dt="string">2016-08-02T14:54:07Z</DateUtc></StartTime><FrequencyChanges><FrequencyChange><Frequency dt:dt="r8">2793160000</Frequency><Timestamp dt:dt="r8">8.67591638185306E+15</Timestamp><Current dt:dt="r8">0</Current><DateUtc dt:dt="string">2016-08-02T14:54:07Z</DateUtc></FrequencyChange></FrequencyChanges></Clock>\n	TMA Blocker Split Nostril Olfactometer_Pilot 2-59-1	74.912	1.0.0.1473	1	0		-999999	12035	4767597	0	q	603510	5371107	1407065467	2.0.10.242	2.0.10.242	08-02-2016	8/2/2016 2:54:07 PM	10:54:07	2.0.10.147	18	GREEN	NULL	NULL	BlockProcA	NULL	Test1	NULL	NULL	NULL	NULL	NULL	NULL	1	1	1	NULL	NULL	NULL	No	NULL	NULL	NULL	NULL	NULL	NULL	16	NULL	NULL	NULL	NULL	Blank	66	48	NULL	NULL	NULL	NULL	TrialProc	NULL	NULL	NULL	NULL	NULL	NULL	NULL	NULL	NULL	NULL	NULL	NULL	NULL	NULL	NULL	NULL	Nonenol	TrialList	NULL	NULL	NULL	NULL	NULL	NULL	4	2	16	NULL	NULL	NULL	2	NULL	NULL	1	16	16	NULL	Green	431	574	NULL	NULL	NULL	NULL	NULL	NULL	NULL	NULL	NULL	1	NULL	NULL	NULL	ExperimentProc	How intense is the odor?	Experiment	NULL	NULL	NULL	NULL	NULL	NULL	NULL	NULL	?
TMA Blocker Split Nostril Olfactometer_Pilot 2	59	1	<?xml version="1.0"?>\n<Clock xmlns:dt="urn:schemas-microsoft-com:datatypes"><Description dt:dt="string">E-Prime Primary Realtime Clock</Description><StartTime><Timestamp dt:dt="int">0</Timestamp><DateUtc dt:dt="string">2016-08-02T14:54:07Z</DateUtc></StartTime><FrequencyChanges><FrequencyChange><Frequency dt:dt="r8">2793160000</Frequency><Timestamp dt:dt="r8">8.67591638185306E+15</Timestamp><Current dt:dt="r8">0</Current><DateUtc dt:dt="string">2016-08-02T14:54:07Z</DateUtc></FrequencyChange></FrequencyChanges></Clock>\n	TMA Blocker Split Nostril Olfactometer_Pilot 2-59-1	74.912	1.0.0.1473	1	0		-999999	12035	4767597	0	q	603510	5371107	1407065467	2.0.10.242	2.0.10.242	08-02-2016	8/2/2016 2:54:07 PM	10:54:07	2.0.10.147	18	GREEN	NULL	NULL	BlockProcA	NULL	Test1	NULL	NULL	NULL	NULL	NULL	NULL	1	1	1	NULL	NULL	NULL	No	NULL	NULL	NULL	NULL	NULL	NULL	16	NULL	NULL	NULL	NULL	Blank	66	48	NULL	NULL	NULL	NULL	TrialProc	NULL	NULL	NULL	NULL	NULL	NULL	NULL	NULL	NULL	NULL	NULL	NULL	NULL	NULL	NULL	NULL	Nonenol	TrialList	NULL	NULL	NULL	NULL	NULL	NULL	4	2	16	NULL	NULL	NULL	3	NULL	2	NULL	NULL	NULL	NULL	NULL	NULL	NULL	0	2	-999999	13	3133547	0	1	4055	3137602	NULL	NULL	NULL	NULL	SongTrial	NULL	SoundList	NULL	NULL	12	1	16	NULL	NULL	NULL	NULL
TMA Blocker Split Nostril Olfactometer_Pilot 2	59	1	<?xml version="1.0"?>\n<Clock xmlns:dt="urn:schemas-microsoft-com:datatypes"><Description dt:dt="string">E-Prime Primary Realtime Clock</Description><StartTime><Timestamp dt:dt="int">0</Timestamp><DateUtc dt:dt="string">2016-08-02T14:54:07Z</DateUtc></StartTime><FrequencyChanges><FrequencyChange><Frequency dt:dt="r8">2793160000</Frequency><Timestamp dt:dt="r8">8.67591638185306E+15</Timestamp><Current dt:dt="r8">0</Current><DateUtc dt:dt="string">2016-08-02T14:54:07Z</DateUtc></FrequencyChange></FrequencyChanges></Clock>\n	TMA Blocker Split Nostril Olfactometer_Pilot 2-59-1	74.912	1.0.0.1473	1	0		-999999	12035	4767597	0	q	603510	5371107	1407065467	2.0.10.242	2.0.10.242	08-02-2016	8/2/2016 2:54:07 PM	10:54:07	2.0.10.147	18	GREEN	NULL	NULL	BlockProcA	NULL	Test1	NULL	NULL	NULL	NULL	NULL	NULL	1	1	1	NULL	NULL	NULL	No	NULL	NULL	NULL	NULL	NULL	NULL	17	NULL	NULL	NULL	NULL	Blank	66	24	NULL	NULL	NULL	NULL	TrialProc	NULL	NULL	NULL	NULL	NULL	NULL	NULL	NULL	NULL	NULL	NULL	NULL	NULL	NULL	NULL	NULL	Blank	TrialList	NULL	NULL	NULL	NULL	NULL	NULL	9	2	17	NULL	NULL	NULL	1	NULL	NULL	NULL	NULL	NULL	NULL	NULL	NULL	NULL	NULL	NULL	NULL	NULL	NULL	NULL	NULL	NULL	NULL	NULL	1	24	24	PrepareProc	NULL	Prepare	NULL	NULL	NULL	NULL	NULL	NULL	NULL	NULL	NULL
TMA Blocker Split Nostril Olfactometer_Pilot 2	59	1	<?xml version="1.0"?>\n<Clock xmlns:dt="urn:schemas-microsoft-com:datatypes"><Description dt:dt="string">E-Prime Primary Realtime Clock</Description><StartTime><Timestamp dt:dt="int">0</Timestamp><DateUtc dt:dt="string">2016-08-02T14:54:07Z</DateUtc></StartTime><FrequencyChanges><FrequencyChange><Frequency dt:dt="r8">2793160000</Frequency><Timestamp dt:dt="r8">8.67591638185306E+15</Timestamp><Current dt:dt="r8">0</Current><DateUtc dt:dt="string">2016-08-02T14:54:07Z</DateUtc></FrequencyChange></FrequencyChanges></Clock>\n	TMA Blocker Split Nostril Olfactometer_Pilot 2-59-1	74.912	1.0.0.1473	1	0		-999999	12035	4767597	0	q	603510	5371107	1407065467	2.0.10.242	2.0.10.242	08-02-2016	8/2/2016 2:54:07 PM	10:54:07	2.0.10.147	18	GREEN	NULL	NULL	BlockProcA	NULL	Test1	NULL	NULL	NULL	NULL	NULL	NULL	1	1	1	NULL	NULL	NULL	No	NULL	NULL	NULL	NULL	NULL	NULL	17	NULL	NULL	NULL	NULL	Blank	66	24	NULL	NULL	NULL	NULL	TrialProc	NULL	NULL	NULL	NULL	NULL	NULL	NULL	NULL	NULL	NULL	NULL	NULL	NULL	NULL	NULL	NULL	Blank	TrialList	NULL	NULL	NULL	NULL	NULL	NULL	9	2	17	NULL	NULL	NULL	2	NULL	NULL	1	17	17	NULL	Green	565	499	NULL	NULL	NULL	NULL	NULL	NULL	NULL	NULL	NULL	1	NULL	NULL	NULL	ExperimentProc	How intense is the odor?	Experiment	NULL	NULL	NULL	NULL	NULL	NULL	NULL	NULL	?
TMA Blocker Split Nostril Olfactometer_Pilot 2	59	1	<?xml version="1.0"?>\n<Clock xmlns:dt="urn:schemas-microsoft-com:datatypes"><Description dt:dt="string">E-Prime Primary Realtime Clock</Description><StartTime><Timestamp dt:dt="int">0</Timestamp><DateUtc dt:dt="string">2016-08-02T14:54:07Z</DateUtc></StartTime><FrequencyChanges><FrequencyChange><Frequency dt:dt="r8">2793160000</Frequency><Timestamp dt:dt="r8">8.67591638185306E+15</Timestamp><Current dt:dt="r8">0</Current><DateUtc dt:dt="string">2016-08-02T14:54:07Z</DateUtc></FrequencyChange></FrequencyChanges></Clock>\n	TMA Blocker Split Nostril Olfactometer_Pilot 2-59-1	74.912	1.0.0.1473	1	0		-999999	12035	4767597	0	q	603510	5371107	1407065467	2.0.10.242	2.0.10.242	08-02-2016	8/2/2016 2:54:07 PM	10:54:07	2.0.10.147	18	GREEN	NULL	NULL	BlockProcA	NULL	Test1	NULL	NULL	NULL	NULL	NULL	NULL	1	1	1	NULL	NULL	NULL	No	NULL	NULL	NULL	NULL	NULL	NULL	17	NULL	NULL	NULL	NULL	Blank	66	24	NULL	NULL	NULL	NULL	TrialProc	NULL	NULL	NULL	NULL	NULL	NULL	NULL	NULL	NULL	NULL	NULL	NULL	NULL	NULL	NULL	NULL	Blank	TrialList	NULL	NULL	NULL	NULL	NULL	NULL	9	2	17	NULL	NULL	NULL	3	NULL	2	NULL	NULL	NULL	NULL	NULL	NULL	NULL	1	2	-999999	26	3181951	0	2	354	3182305	NULL	NULL	NULL	NULL	SongTrial	NULL	SoundList	NULL	NULL	6	1	17	NULL	NULL	NULL	NULL
TMA Blocker Split Nostril Olfactometer_Pilot 2	59	1	<?xml version="1.0"?>\n<Clock xmlns:dt="urn:schemas-microsoft-com:datatypes"><Description dt:dt="string">E-Prime Primary Realtime Clock</Description><StartTime><Timestamp dt:dt="int">0</Timestamp><DateUtc dt:dt="string">2016-08-02T14:54:07Z</DateUtc></StartTime><FrequencyChanges><FrequencyChange><Frequency dt:dt="r8">2793160000</Frequency><Timestamp dt:dt="r8">8.67591638185306E+15</Timestamp><Current dt:dt="r8">0</Current><DateUtc dt:dt="string">2016-08-02T14:54:07Z</DateUtc></FrequencyChange></FrequencyChanges></Clock>\n	TMA Blocker Split Nostril Olfactometer_Pilot 2-59-1	74.912	1.0.0.1473	1	0		-999999	12035	4767597	0	q	603510	5371107	1407065467	2.0.10.242	2.0.10.242	08-02-2016	8/2/2016 2:54:07 PM	10:54:07	2.0.10.147	18	GREEN	NULL	NULL	BlockProcA	NULL	Test1	NULL	NULL	NULL	NULL	NULL	NULL	1	1	1	NULL	NULL	NULL	No	NULL	NULL	NULL	NULL	NULL	NULL	18	NULL	NULL	NULL	NULL	Nonenol	72	9	NULL	NULL	NULL	NULL	TrialProc	NULL	NULL	NULL	NULL	NULL	NULL	NULL	NULL	NULL	NULL	NULL	NULL	NULL	NULL	NULL	NULL	TMA	TrialList	NULL	NULL	NULL	NULL	NULL	NULL	8	2	18	NULL	NULL	NULL	1	NULL	NULL	NULL	NULL	NULL	NULL	NULL	NULL	NULL	NULL	NULL	NULL	NULL	NULL	NULL	NULL	NULL	NULL	NULL	1	25	25	PrepareProc	NULL	Prepare	NULL	NULL	NULL	NULL	NULL	NULL	NULL	NULL	NULL
